"Time (s)","Acceleration x (m/s^2)","Acceleration y (m/s^2)","Acceleration z (m/s^2)","Absolute acceleration (m/s^2)"
9.944660000E-3,3.447650373E-1,2.020706177E0,6.234501362E0,6.562859408E0
1.497997800E-2,6.416460276E-1,1.781286120E0,5.947196960E0,6.241301271E0
2.001529600E-2,8.140285611E-1,1.551442742E0,5.889736176E0,6.144803439E0
2.505061400E-2,1.005564690E0,1.551442742E0,7.048529625E0,7.286968149E0
3.005541400E-2,9.002198577E-1,1.359906554E0,7.058106422E0,7.244073985E0
3.509073300E-2,7.661445141E-1,1.072602391E0,7.192182064E0,7.311972111E0
4.012605100E-2,4.405331016E-1,7.661445141E-1,9.490615845E0,9.531675401E0
4.513085200E-2,1.513135433E0,3.064578176E-1,8.954314232E0,9.086431566E0
5.016617000E-2,1.015141487E0,1.628057212E-1,1.208592987E1,1.212958032E1
5.520148800E-2,9.768342972E-1,-1.532289088E-1,1.149216843E1,1.153462698E1
6.020629000E-2,1.331176162E0,-4.405331016E-1,1.061110210E1,1.070334468E1
6.524160700E-2,1.340752959E0,-6.320692301E-1,1.066856289E1,1.077104285E1
7.027692500E-2,1.436521053E0,-7.948749661E-1,1.003649330E1,1.016988774E1
7.531224400E-2,1.407790542E0,-7.661445141E-1,9.883264542E0,1.001238082E1
8.031704500E-2,1.264138460E0,-8.714894056E-1,1.125274754E1,1.135701840E1
8.535236300E-2,1.369483352E0,-1.082179189E0,1.226788998E1,1.239143740E1
9.038768000E-2,1.273715258E0,-1.312022567E0,1.248815632E1,1.262132331E1
9.539248100E-2,1.359906554E0,-1.350329757E0,1.134851646E1,1.150919468E1
1.004278000E-1,1.465251446E0,-1.388636947E0,1.097502041E1,1.115913739E1
1.054631180E-1,1.896207690E0,-1.082179189E0,1.080263805E1,1.102105731E1
1.104679190E-1,2.317587137E0,-5.937620401E-1,1.078348446E1,1.104569149E1
1.155032370E-1,2.624045134E0,-5.746084079E-2,1.042914295E1,1.075434504E1
1.205385550E-1,2.968810081E0,7.086837292E-1,9.327810287E0,9.814484739E0
1.255738730E-1,3.351882458E0,1.264138460E0,8.963891029E0,9.653212131E0
1.305786740E-1,3.629609823E0,1.484405041E0,9.040505409E0,9.854352533E0
1.356139920E-1,4.098873138E0,1.072602391E0,8.427590370E0,9.432683412E0
1.406493110E-1,4.319139957E0,7.469909191E-1,7.891288757E0,9.026926590E0
1.456541110E-1,4.405331135E0,4.213795066E-1,7.536946774E0,8.740141290E0
1.506894290E-1,4.060565948E0,4.118026793E-1,7.259219646E0,8.327907729E0
1.557247470E-1,3.696647406E0,4.022258818E-1,7.067683220E0,7.986183932E0
1.607295480E-1,3.438073635E0,4.213795066E-1,6.895300865E0,7.716416593E0
1.657648660E-1,2.758120298E0,6.320692301E-1,7.603984833E0,8.113403998E0
1.708001850E-1,2.892195702E0,7.565677166E-1,7.163451672E0,7.762231028E0
1.758049860E-1,3.840299606E0,1.130063176E0,7.757213593E0,8.729221418E0
1.808403040E-1,5.248090267E0,1.522712231E0,8.743624687E0,1.031077478E1
1.858756210E-1,6.100425720E0,1.474828243E0,1.101332760E1,1.267610733E1
1.909109400E-1,6.023811340E0,9.193734527E-1,1.229662037E1,1.372364467E1
1.959157410E-1,6.100425720E0,1.723825186E-1,1.289038181E1,1.426207744E1
2.009510590E-1,6.311115742E0,-3.734954596E-1,1.247857952E1,1.398873217E1
2.059863770E-1,6.416460514E0,-4.118026793E-1,1.211466026E1,1.371515732E1
2.109911780E-1,6.694188118E0,3.830722719E-2,1.104205799E1,1.291281018E1
2.160264960E-1,7.201758862E0,4.788403511E-1,9.519346237E0,1.194623671E1
2.210618140E-1,6.809109688E0,9.959878922E-1,9.433155060E0,1.167648838E1
2.260666150E-1,6.387730122E0,1.168370485E0,9.279925346E0,1.132630567E1
2.311019330E-1,5.372588634E0,2.183511972E0,1.339795303E1,1.459923213E1
2.361372520E-1,4.922478676E0,2.413355350E0,1.307234097E1,1.417537226E1
2.411420520E-1,5.046977043E0,2.154781580E0,1.093671322E1,1.223628853E1
2.461773710E-1,6.196194172E0,1.723825216E0,8.408436775E0,1.058613266E1
2.512126880E-1,6.722918510E0,1.819593310E0,5.841852188E0,9.090422988E0
2.562480070E-1,6.397306919E0,2.011129379E0,5.746084213E0,8.831062279E0
2.612528070E-1,5.688623428E0,2.317587137E0,6.703764915E0,9.092420508E0
2.662881260E-1,4.979939461E0,2.547430515E0,6.971915245E0,8.938501074E0
2.713234440E-1,4.893748283E0,2.892195702E0,6.962338448E0,8.988199202E0
2.763282450E-1,5.094861031E0,2.873042107E0,7.316680431E0,9.367272410E0
2.813635620E-1,5.612008572E0,2.700659513E0,7.862558365E0,1.003035523E1
2.863988810E-1,6.358999729E0,2.489969730E0,8.245630264E0,1.070641141E1
2.914036820E-1,6.770802498E0,2.327163935E0,8.341399193E0,1.099265204E1
2.964390000E-1,6.742072105E0,2.011129379E0,8.341399193E0,1.091233789E1
3.014743180E-1,6.646304131E0,1.896207690E0,8.303091049E0,1.080325336E1
3.065096360E-1,6.339846134E0,1.628057122E0,7.948749542E0,1.029693344E1
3.115144380E-1,6.138733387E0,1.493981838E0,7.843404770E0,1.007149580E1
3.165497550E-1,6.129156113E0,1.618480325E0,7.632715225E0,9.921913874E0
3.215850730E-1,6.339846134E0,1.848323703E0,7.287950039E0,9.834844446E0
3.265898740E-1,6.033388138E0,1.206677675E0,7.603984833E0,9.781535093E0
3.316251930E-1,5.659893036E0,3.830722570E-1,8.073247910E0,9.867039340E0
3.366605110E-1,5.142745018E0,-8.619125932E-2,8.140285492E0,9.629096694E0
3.416653120E-1,4.730942726E0,-2.585737705E-1,8.044517517E0,9.336109551E0
3.467006290E-1,4.137180328E0,-3.639186621E-1,7.814674377E0,8.849736351E0
3.517359480E-1,3.476380825E0,-7.469909191E-1,7.699752808E0,8.481120938E0
3.567712660E-1,2.882618904E0,-1.015141487E0,7.517793179E0,8.115246038E0
3.617760670E-1,2.346317768E0,-1.072602391E0,7.469909191E0,7.902861905E0
3.668113850E-1,2.106897593E0,-9.002198577E-1,7.623138428E0,7.960003313E0
3.718467020E-1,2.135627985E0,-8.236053586E-1,7.431602001E0,7.776113488E0
3.768515040E-1,2.336740971E0,-8.331822157E-1,7.469909191E0,7.871092319E0
3.818868220E-1,2.748543501E0,-1.082179189E0,7.862558365E0,8.399132527E0
3.869221400E-1,3.687070608E0,-1.158793569E0,8.647856712E0,9.472207658E0
3.919269410E-1,4.797980309E0,-1.168370485E0,1.000776291E1,1.115979494E1
3.969622590E-1,5.659893036E0,-1.197100878E0,1.154962921E1,1.291748329E1
4.019975780E-1,7.125144482E0,-1.264138460E0,1.276588345E1,1.467424649E1
4.070023780E-1,8.523358345E0,-1.264138460E0,1.297657299E1,1.557681386E1
4.120376960E-1,8.887276649E0,-1.321599364E0,1.257434750E1,1.545459563E1
4.170730140E-1,9.126696587E0,-1.331176162E0,1.139640045E1,1.466105603E1
4.221083330E-1,1.022802925E1,-6.320692301E-1,9.002198219E0,1.364007576E1
4.271131330E-1,9.911994934E0,2.106897533E-1,7.776367188E0,1.260015557E1
4.321484520E-1,9.452308655E0,1.312022567E0,6.809109688E0,1.172311891E1
4.371837690E-1,8.647856712E0,3.303998232E0,9.299078941E0,1.312153570E1
4.421885710E-1,6.607996464E0,4.865017891E0,1.046745014E1,1.330043341E1
4.472238880E-1,3.620033026E0,4.644751072E0,1.132936287E1,1.276843039E1
4.522592070E-1,1.781286120E0,2.892195702E0,1.062067890E1,1.115063211E1
4.572640080E-1,1.216254473E0,9.481038451E-1,9.854534149E0,9.974468364E0
4.622993260E-1,2.260126352E0,-4.692635238E-1,8.676587105E0,8.978393129E0
4.673346440E-1,2.480392933E0,-1.618480325E0,9.145850182E0,9.613449080E0
4.723699620E-1,2.126051188E0,-2.183511972E0,9.643844604E0,1.011392886E1
4.773747630E-1,1.570596337E0,-2.135627985E0,9.442731857E0,9.807796117E0
4.824100810E-1,9.768342972E-1,-1.656787634E0,8.676587105E0,8.887199463E0
4.874453990E-1,1.043871999E0,-1.273715258E0,7.364564419E0,7.546444751E0
4.924502000E-1,1.388636947E0,-1.120486379E0,6.406883717E0,6.650711334E0
4.974855190E-1,2.231395960E0,-1.158793569E0,5.516240597E0,6.062247173E0
5.025208360E-1,2.710236311E0,-1.379060149E0,5.621585369E0,6.391354302E0
5.075256380E-1,3.390189648E0,-1.168370485E0,5.985504150E0,6.977444760E0
5.125609550E-1,4.175487995E0,-1.043871999E0,6.971915245E0,8.193410214E0
5.175962740E-1,5.573701382E0,-7.852981687E-1,7.766790390E0,9.591969207E0
5.226010740E-1,6.780379295E0,-7.565677166E-1,7.718906403E0,1.030181800E1
5.276363930E-1,6.837840080E0,-4.884171486E-1,7.345410824E0,1.004737122E1
5.326717110E-1,6.157886982E0,-9.576806799E-3,7.469909191E0,9.680868098E0
5.376765120E-1,5.343858242E0,3.064578176E-1,7.038952827E0,8.842940360E0
5.427118290E-1,5.190629482E0,4.213795066E-1,6.665457726E0,8.458635930E0
5.477471480E-1,5.477933407E0,8.619125932E-2,5.707777023E0,7.911630798E0
5.527824660E-1,6.301538944E0,-2.202665508E-1,5.477933407E0,8.352584320E0
5.577872670E-1,7.010222435E0,-7.374141216E-1,5.458779812E0,8.915451487E0
5.628225850E-1,6.991068840E0,-1.283292055E0,5.209783077E0,8.812702295E0
5.678579030E-1,6.339846134E0,-1.771709204E0,4.711789131E0,8.095280065E0
5.728932210E-1,5.755661011E0,-2.173935175E0,3.600879431E0,7.128811997E0
5.778980220E-1,4.587290287E0,-2.710236311E0,2.901772499E0,6.067033598E0
5.829333400E-1,3.332728863E0,-3.466804028E0,1.781286120E0,5.128234792E0
5.879686590E-1,2.039859772E0,-4.242525578E0,1.130063176E0,4.841187246E0
5.929734600E-1,8.523358107E-1,-4.989516258E0,1.426944256E0,5.259079647E0
5.980087780E-1,2.853888512E0,-4.769249916E0,-1.273715258E0,5.701997453E0
6.030440950E-1,2.930502892E0,-4.185064793E0,-2.365471363E0,5.630103843E0
6.080794140E-1,3.169923067E0,-4.673481941E0,-3.543418646E-1,5.658215608E0
6.130842150E-1,3.859453201E0,-4.999093056E0,2.394201756E-1,6.320097500E0
6.181195330E-1,4.759673119E0,-5.248090267E0,9.002198577E-1,7.141941994E0
6.231548510E-1,6.167463779E0,-5.477933407E0,1.350329757E0,8.358753157E0
6.281596520E-1,7.852981567E0,-5.880159378E0,4.003105164E0,1.059577485E1
6.331949700E-1,8.944737434E0,-5.985504150E0,7.527369976E0,1.313376894E1
6.382302880E-1,9.414001465E0,-6.272808552E0,9.270348549E0,1.462569359E1
6.432656060E-1,8.705317497E0,-6.550535679E0,9.241618156E0,1.428634231E1
6.482704070E-1,7.412448406E0,-6.943184853E0,7.584830761E0,1.267603506E1
6.533057260E-1,6.607996464E0,-6.828263283E0,5.908889771E0,1.118953864E1
6.583410430E-1,6.358999729E0,-6.464344501E0,4.453215122E0,1.010226471E1
6.633763610E-1,6.234501362E0,-5.726930618E0,3.045424461E0,8.996741170E0
6.683811620E-1,7.402871609E0,-5.228936672E0,1.800439715E0,9.240447497E0
6.734164810E-1,8.370129585E0,-4.625597477E0,4.884171486E-1,9.575686534E0
6.784517990E-1,8.283937454E0,-4.137180328E0,2.873042040E-2,9.259627760E0
6.834566000E-1,7.517793179E0,-3.993528366E0,-9.576807022E-1,8.566366523E0
6.884919180E-1,6.588842869E0,-4.386177540E0,-1.857900500E0,8.130387323E0
6.935272360E-1,6.052541733E0,-4.520252705E0,-2.355894566E0,7.913038932E0
6.985320360E-1,6.023811340E0,-5.468356609E0,-1.982398987E0,8.373716786E0
7.035673550E-1,5.573701382E0,-6.933608055E0,-1.493981838E0,9.020701164E0
7.086026730E-1,5.228936672E0,-8.408436775E0,-9.576807022E-1,9.947901289E0
7.136379900E-1,6.100425720E0,-8.829815865E0,-1.915361285E-1,1.073394281E1
7.186427920E-1,7.383718014E0,-8.006210327E0,6.607996821E-1,1.091124886E1
7.236781100E-1,7.508216381E0,-6.722918510E0,1.264138460E0,1.015721382E1
7.287134280E-1,8.169015884E0,-5.248090267E0,9.768342972E-1,9.758559177E0
7.337182290E-1,9.490615845E0,-5.468356609E0,1.321599364E0,1.103273937E1
7.387535470E-1,1.094629002E1,-5.190629482E0,4.884171486E-1,1.212445672E1
7.437888660E-1,9.979032516E0,-4.903325081E0,9.097966552E-1,1.115577952E1
7.488241830E-1,1.108994198E1,-5.985504150E0,-9.002198577E-1,1.263421817E1
7.538289850E-1,1.003649330E1,-6.071695328E0,-1.608903527E0,1.183998533E1
7.588643020E-1,6.828263283E0,-4.903325081E0,-2.624045134E0,8.806440210E0
7.638996210E-1,9.002198219E0,-7.671022415E0,-1.130063176E0,1.188112791E1
7.689349390E-1,6.521805286E0,-6.981492043E0,-4.098873138E0,1.039595769E1
7.739397400E-1,6.569689274E0,-8.054094315E0,-2.030282974E0,1.059015115E1
7.789750570E-1,7.115567684E0,-9.050082207E0,-1.829170108E0,1.165680723E1
7.840103760E-1,7.948749542E0,-9.557653427E0,-1.484405041E0,1.251937765E1
7.890456940E-1,8.801085472E0,-9.873687744E0,-6.512228847E-1,1.324284359E1
7.940504950E-1,9.691728592E0,-9.902418137E0,6.703764945E-2,1.385611714E1
7.990858130E-1,1.069729328E1,-9.998186111E0,8.523358107E-1,1.466704760E1
8.041211310E-1,1.131020927E1,-1.030464458E1,1.589749932E0,1.538290735E1
8.091564490E-1,1.186566353E1,-1.051533413E1,2.700659513E0,1.608290349E1
8.141612500E-1,1.242111874E1,-1.062067890E1,4.347870350E0,1.691114980E1
8.191965680E-1,1.253604031E1,-1.037168217E1,5.698200226E0,1.723930345E1
8.242318870E-1,1.282334423E1,-1.004607010E1,6.110002518E0,1.739809796E1
8.292672040E-1,1.317768574E1,-9.232041359E0,6.828263283E0,1.747876336E1
8.342720060E-1,1.357991219E1,-8.188169479E0,6.215347767E0,1.703204868E1
8.393073230E-1,1.418325043E1,-7.498639584E0,4.999093056E0,1.680431848E1
8.443426420E-1,1.426944256E1,-7.364564419E0,2.853888512E0,1.630945982E1
8.493474420E-1,1.348414421E1,-7.929595947E0,2.422932148E0,1.582944210E1
8.543827610E-1,1.279461384E1,-8.255207062E0,4.079719543E0,1.576371461E1
8.594180790E-1,1.269884586E1,-9.586383820E0,3.409343243E0,1.627215604E1
8.644228800E-1,1.046745014E1,-1.023760605E1,-2.202665508E-1,1.464324443E1
8.694581970E-1,7.259219646E0,-1.111867237E1,-1.436520964E-1,1.327937427E1
8.744935160E-1,6.081272125E0,-1.142513084E1,1.656787634E0,1.304838805E1
8.795288340E-1,4.797980309E0,-1.190397072E1,1.953668594E0,1.298237093E1
8.845336350E-1,3.246537447E0,-1.303403378E1,6.703764945E-2,1.343244341E1
8.895689530E-1,3.572149038E0,-1.263180828E1,5.363011956E-1,1.313812955E1
8.946042710E-1,4.194641590E0,-1.228704357E1,1.082179189E0,1.302833718E1
8.996395890E-1,5.257667065E0,-1.165497398E1,1.742978811E0,1.290424181E1
9.046443900E-1,6.062118530E0,-1.154962921E1,1.561019540E0,1.313697066E1
9.096797080E-1,6.742072105E0,-1.107078838E1,2.240972757E0,1.315446124E1
9.147150270E-1,7.594407558E0,-1.035252857E1,3.811569214E0,1.339320476E1
9.197198280E-1,7.575253963E0,-8.245630264E0,1.790862918E0,1.133940391E1
9.247551460E-1,7.613561630E0,-9.241618156E0,5.995080948E0,1.339084846E1
9.297904630E-1,8.274360657E0,-9.749189377E0,7.709329605E0,1.493135964E1
9.347952640E-1,8.781931877E0,-1.026633644E1,8.485051155E0,1.595356025E1
9.398305830E-1,8.580819130E0,-1.094629002E1,8.446743965E0,1.627265208E1
9.448659010E-1,7.843404770E0,-1.159751320E1,8.389283180E0,1.632180698E1
9.499012180E-1,7.651868820E0,-1.191354752E1,7.163451672E0,1.586816784E1
9.549060200E-1,8.667010307E0,-1.126232433E1,6.722918510E0,1.572115296E1
9.599413380E-1,8.935160637E0,-1.052491093E1,6.952761650E0,1.545806392E1
9.649766560E-1,7.738059998E0,-1.027591324E1,7.594407558E0,1.493810535E1
9.700119740E-1,6.234501362E0,-1.005564690E1,7.843404770E0,1.419521187E1
9.750167750E-1,4.874594688E0,-1.068771648E1,6.349422932E0,1.335305690E1
9.800520940E-1,4.319139957E0,-1.104205799E1,6.387730122E0,1.346792897E1
9.850874110E-1,4.817133904E0,-1.103248119E1,5.813121796E0,1.336835088E1
9.900922130E-1,5.248090267E0,-1.117613316E1,5.841852188E0,1.365926941E1
9.951275300E-1,6.090848923E0,-1.163582039E1,5.918466568E0,1.440551989E1
1.000162849E0,6.751648903E0,-1.189439392E1,6.349422932E0,1.507900995E1
1.005198167E0,7.268796444E0,-1.214339066E1,6.703764915E0,1.566007032E1
1.010202968E0,6.895300865E0,-1.209550667E1,6.062118530E0,1.518537904E1
1.015238285E0,6.110002518E0,-1.174116516E1,5.382165432E0,1.428827473E1
1.020273603E0,5.966350555E0,-1.077390766E1,4.922478676E0,1.326292658E1
1.025278404E0,6.368576527E0,-9.672574997E0,4.098873138E0,1.228487831E1
1.030313723E0,6.962338448E0,-8.121131897E0,3.055001259E0,1.112474596E1
1.035349041E0,7.584830761E0,-6.588842869E0,1.819593310E0,1.021045679E1
1.040384358E0,7.805097580E0,-5.707777023E0,2.489969730E-1,9.672655596E0
1.045389160E0,7.891288757E0,-4.989516258E0,-7.565677166E-1,9.366968851E0
1.050424478E0,7.709329605E0,-4.558559895E0,-1.139639974E0,9.028455601E0
1.055459796E0,7.862558365E0,-4.280832767E0,-1.714248419E0,9.115042560E0
1.060495114E0,8.130708694E0,-3.888183594E0,-2.212242365E0,9.280108395E0
1.065499915E0,7.498639584E0,-3.284844637E0,-1.695094824E0,8.360212100E0
1.070535234E0,7.517793179E0,-3.457227230E0,-5.937620401E-1,8.295913919E0
1.075570551E0,6.818686485E0,-4.213795185E0,-1.762132406E0,8.207049766E0
1.080605869E0,5.295974255E0,-5.037400246E0,-3.160346270E0,7.963073093E0
1.085610670E0,4.625597477E0,-5.391742229E0,-4.759673119E0,8.551112471E0
1.090645989E0,3.639186621E0,-5.315127850E0,-6.531382084E0,9.173506159E0
1.095681307E0,2.049436569E0,-5.679046631E0,-8.571242332E0,1.048417646E1
1.100716624E0,3.160346150E-1,-6.244078159E0,-9.844957352E0,1.166240006E1
1.105721425E0,-4.884171486E-1,-6.521805286E0,-1.026633644E1,1.217251656E1
1.110756744E0,-4.501099288E-1,-6.167463779E0,-1.016099167E1,1.189478710E1
1.115792062E0,1.685518026E0,-5.343858242E0,-8.714894295E0,1.036084816E1
1.120827380E0,4.596867085E0,-4.481945515E0,-7.134721279E0,9.598086805E0
1.125832181E0,6.636727333E0,-3.591302633E0,-6.100425720E0,9.703545654E0
1.130867499E0,5.525817394E0,-3.055001259E0,-5.659893036E0,8.479509405E0
1.135902817E0,5.899312973E0,-2.738966703E0,-5.056553841E0,8.238480983E0
1.140907618E0,6.186617374E0,-2.422932148E0,-4.041412354E0,7.776750513E0
1.145942936E0,6.828263283E0,-2.997540474E0,-3.620033026E0,8.289455197E0
1.150978255E0,5.544970989E0,-4.175487995E0,-2.547430515E0,7.393970888E0
1.156013572E0,6.416460514E0,-5.334281445E0,-1.197100878E0,8.429624818E0
1.161018374E0,8.781931877E0,-5.353435040E0,8.714894056E-1,1.032187425E1
1.166053691E0,8.188169479E0,-7.240066051E0,3.610456228E0,1.151086748E1
1.171089010E0,7.661445618E0,-7.757213593E0,6.483498096E0,1.268494617E1
1.176093810E0,7.268796444E0,-8.599972725E0,6.502651691E0,1.300305393E1
1.181129129E0,7.163451672E0,-9.107542992E0,6.368576527E0,1.322199479E1
1.186164447E0,7.134721279E0,-8.695740700E0,7.374141216E0,1.344983690E1
1.191199765E0,8.226476669E0,-7.824251175E0,6.272808552E0,1.297081154E1
1.196204565E0,8.944737434E0,-7.182605267E0,6.042964935E0,1.296593889E1
1.201239884E0,1.109951878E1,-5.477933407E0,5.612008572E0,1.359050079E1
1.206275202E0,1.461420727E1,-3.457227230E0,5.832275391E0,1.611033552E1
1.211310520E0,1.780328369E1,-1.541865945E0,4.635174274E0,1.846128656E1
1.216315321E0,1.845450592E1,-4.309563041E-1,3.476380825E0,1.878402874E1
1.221350639E0,1.863646698E1,7.661445439E-2,3.217807055E0,1.891237831E1
1.226385957E0,1.566765594E1,-1.455674648E0,4.893748283E0,1.647856801E1
1.231390758E0,1.039083576E1,-4.319139957E0,-7.852981687E-1,1.128012106E1
1.236426076E0,8.552088737E0,-5.918466568E0,-3.074155092E0,1.084513245E1
1.241461395E0,8.149862289E0,-6.550535679E0,9.576806426E-2,1.045652641E1
1.246496712E0,7.000645638E0,-7.000645638E0,9.768342972E-1,9.948481489E0
1.251501514E0,7.038952827E0,-6.560112476E0,1.810016513E0,9.790714600E0
1.256536831E0,6.588842869E0,-5.803544998E0,3.160346270E0,9.331761540E0
1.261572150E0,6.751648903E0,-5.181052685E0,5.046977043E0,9.894445265E0
1.266607468E0,6.004657745E0,-6.368576527E0,4.462791920E0,9.825028923E0
1.271612269E0,4.596867085E0,-7.077260017E0,5.295974255E0,9.963239416E0
1.276647586E0,2.614468336E0,-8.437167168E0,4.405331135E0,9.870571255E0
1.281682905E0,2.489969730E-1,-1.049618053E1,4.185064793E0,1.130250294E1
1.286687706E0,-6.129156351E-1,-1.161666679E1,4.376600742E0,1.242888760E1
1.291723024E0,-2.873041928E-1,-1.160709000E1,5.880159378E0,1.301473612E1
1.296758342E0,3.830722570E-1,-1.146343803E1,7.316680431E0,1.360481416E1
1.301793660E0,1.762132406E0,-1.085052204E1,6.722918510E0,1.288551794E1
1.306798462E0,2.978386879E0,-9.490615845E0,5.018246651E0,1.114115690E1
1.311833779E0,4.338293552E0,-7.651868820E0,3.955221176E0,9.644462761E0
1.316869097E0,6.378153324E0,-5.851428986E0,2.614468336E0,9.041875120E0
1.321873898E0,6.282385349E0,-5.305551052E0,1.110909581E0,8.297671827E0
1.326909216E0,6.148310184E0,-5.276820660E0,1.015141487E0,8.165602650E0
1.331944535E0,5.497087002E0,-5.774814606E0,-8.331822157E-1,8.016273563E0
1.336949336E0,4.932055473E0,-5.822698593E0,-3.639186621E-1,7.639465092E0
1.341984653E0,5.171475887E0,-5.784391403E0,-1.915361285E-1,7.761445281E0
1.347019971E0,4.692635536E0,-5.487510204E0,-1.474828243E0,7.369444678E0
1.352055290E0,3.763684988E0,-5.315127850E0,-2.604891539E0,7.014368730E0
1.357060091E0,3.035847664E0,-4.711789131E0,-3.811569214E0,6.778302717E0
1.362095409E0,1.359906554E0,-4.252102375E0,-5.726930618E0,7.261367278E0
1.367130726E0,-1.503558636E0,-4.319139957E0,-3.897760391E0,6.009009453E0
1.372135528E0,3.447650373E-1,-3.687070608E0,-2.480392933E0,4.457095658E0
1.377170846E0,1.752555609E0,-3.869029999E0,-2.997540474E0,5.198662634E0
1.382206164E0,1.714248419E0,-3.754108191E0,-2.346317768E0,4.747334306E0
1.387241482E0,2.336740971E0,-3.055001259E0,-6.033388376E-1,3.893251701E0
1.392246283E0,3.945644379E0,-2.844311714E0,5.458779931E-1,4.894507276E0
1.397281602E0,5.343858242E0,-3.131615877E0,2.202665508E-1,6.197770266E0
1.402316919E0,5.468356609E0,-3.907337189E0,8.714894056E-1,6.777145542E0
1.407352237E0,5.841852188E0,-4.884171486E0,9.576806426E-2,7.615217634E0
1.412357038E0,8.226476669E0,-5.372588634E0,3.351882398E-1,9.831173795E0
1.417392357E0,1.000776291E1,-6.646304131E0,2.489969730E-1,1.201626716E1
1.422427675E0,9.165003777E0,-7.479485989E0,-5.746084079E-2,1.182976359E1
1.427432476E0,9.404424667E0,-7.900865555E0,-5.746084079E-2,1.228292236E1
1.432467793E0,1.011310768E1,-7.565677166E0,5.650315881E-1,1.264253450E1
1.437503112E0,1.177947235E1,-6.789956093E0,1.024718285E0,1.363486414E1
1.442538430E0,1.327345467E1,-5.659893036E0,2.193088770E0,1.459550021E1
1.447543231E0,1.573469353E1,-4.721365929E0,3.275267839E0,1.675109716E1
1.452578549E0,1.859815788E1,-3.687070608E0,4.443638325E0,1.947387706E1
1.457613867E0,2.036986732E1,-2.719813108E0,3.524264812E0,2.085064317E1
1.462649185E0,2.118389702E1,-2.566584110E0,2.461239338E0,2.148028273E1
1.467653986E0,2.132754898E1,-2.863465309E0,1.685518026E0,2.158482685E1
1.472689304E0,2.076251793E1,-3.150769472E0,1.589749932E0,2.106031348E1
1.477724623E0,1.897165489E1,-4.194641590E0,1.915361404E0,1.952401897E1
1.482759940E0,1.647210693E1,-5.209783077E0,2.499546528E0,1.745622752E1
1.487764742E0,1.398213768E1,-6.167463779E0,2.375048161E0,1.546540130E1
1.492800059E0,1.185608673E1,-6.770802498E0,1.752555609E0,1.376524646E1
1.497835378E0,1.008437729E1,-6.971915245E0,2.011129379E0,1.242364314E1
1.502840178E0,9.308655739E0,-6.215347767E0,3.361459255E0,1.168678860E1
1.507875497E0,7.843404770E0,-6.320692539E0,1.800439715E0,1.023287524E1
1.512910814E0,6.378153324E0,-6.770802498E0,8.810662031E-1,9.343494204E0
1.517946133E0,5.094861031E0,-7.105990410E0,2.968810201E-1,8.748762596E0
1.522950933E0,4.817133904E0,-7.326257229E0,-2.873041928E-1,8.772762833E0
1.527986252E0,4.941632271E0,-7.182605267E0,-8.427590132E-1,8.758983427E0
1.533021570E0,4.893748283E0,-7.105990410E0,-1.570596337E0,8.769871426E0
1.538056888E0,4.711789131E0,-7.010222435E0,-2.240972757E0,8.738771899E0
1.543061689E0,3.840299606E0,-7.335834026E0,-2.930502892E0,8.783519177E0
1.548097007E0,2.576161146E0,-8.552088737E0,-3.112462282E0,9.458448577E0
1.553132325E0,9.193734527E-1,-1.037168217E1,-2.940079689E0,1.081947813E1
1.558137126E0,-4.309563041E-1,-1.187524033E1,-2.011129379E0,1.205204122E1
1.563172444E0,-9.097966552E-1,-1.264138508E1,-4.118026793E-1,1.268077001E1
1.568207763E0,-6.224924326E-1,-1.255519390E1,1.484405041E0,1.265795596E1
1.573243080E0,4.788403511E-1,-1.212423706E1,2.413355350E0,1.237136599E1
1.578247881E0,2.700659513E0,-1.131978607E1,4.098873138E0,1.233822838E1
1.583283199E0,4.558559895E0,-9.940725327E0,3.351882458E0,1.143825180E1
1.588318518E0,7.489062786E0,-7.939172745E0,3.878606796E0,1.158275079E1
1.593353836E0,1.074517727E1,-5.564124584E0,6.416460276E-1,1.211734404E1
1.598358637E0,1.143470764E1,-4.175487995E0,-4.644751072E0,1.302923449E1
1.603393954E0,1.053448772E1,-3.840299606E0,-6.876147270E0,1.315312639E1
1.608429273E0,9.155426979E0,-3.849876404E0,-6.311115742E0,1.176747948E1
1.613434074E0,6.962338448E0,-4.596867085E0,-4.003105164E0,9.253658444E0
1.618469392E0,4.165910721E0,-6.090848923E0,-1.369483352E0,7.505247323E0
1.623504710E0,2.030282974E0,-8.073247910E0,-1.120486379E0,8.399694666E0
1.628540028E0,2.011129379E0,-8.599972725E0,-5.037400246E0,1.016757461E1
1.633544829E0,2.863465309E0,-7.948749542E0,-6.081272125E0,1.040979940E1
1.638580147E0,3.198653460E0,-7.096413612E0,-5.056553841E0,9.282198385E0
1.643615465E0,3.332728863E0,-6.378153324E0,-3.591302633E0,8.042721934E0
1.648650784E0,3.744531393E0,-5.698200226E0,-2.700659513E0,7.333795946E0
1.653655584E0,3.734954596E0,-5.554547787E0,-2.011129379E0,6.989100681E0
1.658690903E0,3.313575268E0,-5.870582581E0,-6.416460276E-1,6.771649025E0
1.663726220E0,3.122039080E0,-6.062118530E0,1.628057212E-1,6.820770836E0
1.668731021E0,3.016694069E0,-6.358999729E0,1.149216771E0,7.131480901E0
1.673766339E0,2.968810081E0,-6.981492043E0,1.034295082E0,7.656685364E0
1.678801658E0,3.131615877E0,-7.699752808E0,1.206677675E0,8.399362018E0
1.683806459E0,3.562572241E0,-8.082824707E0,1.886630893E0,9.032350322E0
1.688841777E0,4.213795185E0,-8.054094315E0,1.781286120E0,9.262693201E0
1.693877094E0,4.654327869E0,-7.776367188E0,1.714248419E0,9.223518970E0
1.698912413E0,4.922478676E0,-7.268796444E0,1.752555609E0,8.951963428E0
1.703917214E0,4.673481941E0,-7.230489254E0,1.350329757E0,8.714631304E0
1.708952532E0,3.974374771E0,-7.603984833E0,2.087743998E0,8.830340603E0
1.713987850E0,3.687070608E0,-7.623138428E0,3.026270866E0,8.992499347E0
1.718992651E0,3.112462282E0,-7.594407558E0,3.476380825E0,8.913342317E0
1.724027970E0,2.873042107E0,-7.776367188E0,3.696647406E0,9.076974145E0
1.729063287E0,2.576161146E0,-8.034940720E0,2.652775526E0,8.845004048E0
1.734098605E0,2.633621931E0,-7.450755596E0,2.068590164E0,8.168769105E0
1.739103406E0,2.738966703E0,-6.962338448E0,1.991975784E0,7.742355119E0
1.744138725E0,2.566584110E0,-6.196194172E0,1.963245392E0,6.988169194E0
1.749174042E0,2.384624958E0,-5.669469833E0,1.503558636E0,6.331667470E0
1.754178844E0,2.164358377E0,-5.152322292E0,5.746083856E-1,5.617921946E0
1.759214161E0,1.944091797E0,-4.568136692E0,-3.160346150E-1,4.974660152E0
1.764249480E0,1.991975784E0,-4.108449936E0,-8.044517636E-1,4.636213006E0
1.769284798E0,1.905784607E0,-4.185064793E0,-1.034295082E0,4.713443391E0
1.774289599E0,1.283292055E0,-5.267243862E0,-1.197100878E0,5.551913806E0
1.779324917E0,1.302445769E0,-6.971915245E0,-2.442085743E0,7.501183236E0
1.784360235E0,2.164358377E0,-8.781931877E0,-3.629609823E0,9.745811518E0
1.789395553E0,3.055001259E0,-1.071644688E1,-4.386177540E0,1.197555092E1
1.794400354E0,4.232948780E0,-1.400129128E1,-4.185064793E0,1.521409807E1
1.799435672E0,4.817133904E0,-1.642422295E1,-4.050989151E0,1.758892810E1
1.804470991E0,5.707777023E0,-1.830127716E1,-3.476380825E0,1.948334386E1
1.809506308E0,5.746084213E0,-2.017833138E1,-3.045424461E0,2.120040450E1
1.814511109E0,4.673481941E0,-2.221819115E1,-2.126051188E0,2.280371779E1
1.819546427E0,2.930502892E0,-2.412397575E1,-1.024718285E0,2.432291308E1
1.824581746E0,1.493981838E0,-2.563711166E1,4.884171486E-1,2.568524922E1
1.829617064E0,3.256114423E-1,-2.649902534E1,2.518700123E0,2.662044735E1
1.834621865E0,-1.896207690E0,-2.677675247E1,5.133168221E0,2.733019379E1
1.839657182E0,-4.596867085E0,-2.556049728E1,8.264783859E0,2.725393294E1
1.844692501E0,-6.244078159E0,-2.321417999E1,1.061110210E1,2.627702709E1
1.849727819E0,-6.215347767E0,-1.982398987E1,1.168370438E1,2.383547923E1
1.854732620E0,-5.066130638E0,-1.624226379E1,1.098459721E1,2.025186877E1
1.859767938E0,-3.792415380E0,-1.330218506E1,9.155426979E0,1.658771789E1
1.864803256E0,-2.767697096E0,-1.078348446E1,6.933608055E0,1.311558634E1
1.869808057E0,-2.135627985E0,-8.916007042E0,5.037400246E0,1.046095071E1
1.874843375E0,-1.379060149E0,-7.402871609E0,3.552995205E0,8.326349133E0
1.879878693E0,-9.385270476E-1,-6.215347767E0,3.189076662E0,7.048516925E0
1.884914012E0,-2.288856745E0,-6.809109688E0,4.635174274E0,8.549133318E0
1.889918812E0,-1.886630893E0,-5.947196960E0,2.968810081E0,6.909584728E0
1.894954131E0,-2.126051188E0,-5.535394192E0,1.608903527E0,6.144042079E0
1.899989448E0,-3.217807055E0,-5.334281445E0,-2.873042040E-2,6.229740461E0
1.905024766E0,-1.800439715E0,-3.543418407E0,-1.570596337E0,4.273660028E0
1.910029567E0,4.405331016E-1,-3.246537447E0,-2.489969730E0,4.115097091E0
1.915064886E0,6.607996821E-1,-5.736507416E0,-2.815581083E0,6.424303105E0
1.920100204E0,3.064578176E-1,-8.925583839E0,-2.863465309E0,9.378667115E0
1.925135521E0,5.171475410E-1,-1.022802925E1,-2.489969730E0,1.053944843E1
1.930140322E0,1.005564690E0,-1.088882923E1,-1.608903527E0,1.105288799E1
1.935175641E0,1.235408068E0,-1.120486355E1,-6.799532771E-1,1.129325182E1
1.940210959E0,1.379060149E0,-1.147301483E1,2.106897533E-1,1.155751991E1
1.945215760E0,1.551442742E0,-1.159751320E1,8.427590132E-1,1.173113506E1
1.950251078E0,1.800439715E0,-1.118570995E1,1.292868972E0,1.140321010E1
1.955286396E0,1.924938202E0,-1.075475407E1,1.733402014E0,1.106231462E1
1.960321714E0,1.628057122E0,-1.022802925E1,2.193088770E0,1.058644372E1
1.965326515E0,1.379060149E0,-1.016099167E1,2.336740971E0,1.051702985E1
1.970361833E0,1.091755986E0,-1.034295177E1,2.499546528E0,1.069655624E1
1.975397152E0,8.906430602E-1,-1.073560047E1,2.355894566E0,1.102708492E1
1.980432469E0,5.841852427E-1,-1.115697956E1,2.308010340E0,1.140817150E1
1.985437271E0,2.202665508E-1,-1.158793640E1,2.039859772E0,1.176816958E1
1.990472588E0,-1.149216816E-1,-1.187524033E1,1.857900500E0,1.202024684E1
1.995507907E0,-6.224924326E-1,-1.227746677E1,1.733402014E0,1.241484473E1
2.000543225E0,-1.235408068E0,-1.261265469E1,1.484405041E0,1.275965319E1
2.005548026E0,-1.292868972E0,-1.243069553E1,1.225831270E0,1.255772129E1
2.010583343E0,-1.446097851E0,-1.209550667E1,9.864110947E-1,1.222151739E1
2.015618662E0,-1.120486379E0,-1.077390766E1,8.810662031E-1,1.086778973E1
2.020623462E0,-1.513135433E0,-1.048660374E1,6.224924326E-1,1.061347886E1
2.025658781E0,-1.905784607E0,-1.035252857E1,5.458779931E-1,1.054062833E1
2.030694099E0,-1.953668594E0,-1.001733971E1,3.351882398E-1,1.021157514E1
2.035729417E0,-1.723825216E0,-9.720458984E0,3.639186621E-1,9.878832575E0
2.040734218E0,-1.599326730E0,-9.203310966E0,2.298433632E-1,9.344067996E0
2.045769536E0,-1.149216771E0,-8.370129585E0,4.788403213E-2,8.448790525E0
2.050804854E0,-2.394201756E-1,-7.268796444E0,-1.436520964E-1,7.274156974E0
2.055840173E0,-1.053448766E-1,-6.569689274E0,-2.011129409E-1,6.573610965E0
2.060844973E0,-1.436520964E-1,-6.224924564E0,-5.171475410E-1,6.248020753E0
2.065880292E0,-7.661445439E-2,-5.841852188E0,-6.991068721E-1,5.884034091E0
2.070915609E0,-2.442085743E0,-6.789956093E0,-1.216254473E0,7.317551603E0
2.075920410E0,-4.884171486E0,-8.283937454E0,-1.982398987E0,9.818790994E0
2.080955728E0,-4.386177540E0,-9.021351814E0,-2.068590164E0,1.024218762E1
2.085991047E0,-1.101332784E0,-7.680599213E0,-1.436521053E0,7.891015835E0
2.091026365E0,-1.407790542E0,-7.939172745E0,-1.388636947E0,8.181726630E0
2.096031166E0,-2.240972757E0,-8.523358345E0,-1.091755986E0,8.880401315E0
2.101066483E0,-2.279279947E0,-8.992621422E0,-1.005564690E0,9.331319170E0
2.106101802E0,-2.202665567E0,-9.145850182E0,-5.841852427E-1,9.425475242E0
2.111106603E0,-2.317587137E0,-9.605537415E0,-5.363011956E-1,9.895715140E0
2.116141921E0,-2.595314741E0,-1.022802925E1,-6.033388376E-1,1.056940200E1
2.121177239E0,-2.700659513E0,-1.040998936E1,-1.915361285E-1,1.075630635E1
2.126212557E0,-2.633621931E0,-1.019929886E1,-1.244984865E-1,1.053456983E1
2.131217359E0,-2.585737944E0,-1.000776291E1,-1.915361360E-2,1.033642714E1
2.136252676E0,-2.154781580E0,-9.442731857E0,1.436520964E-1,9.686532120E0
2.141287994E0,-2.020706177E0,-9.011775017E0,0.000000000E0,9.235547759E0
2.146323313E0,-2.327163935E0,-8.829815865E0,-2.011129409E-1,9.133552792E0
2.151328114E0,-2.087743998E0,-8.609549522E0,-4.979939461E-1,8.873049980E0
2.156363432E0,-2.145204782E0,-8.781931877E0,-6.320692301E-1,9.062215103E0
2.161398749E0,-2.078166962E0,-8.963891029E0,-8.619126081E-1,9.241916124E0
2.166434068E0,-2.039859772E0,-9.327810287E0,-8.236053586E-1,9.583704839E0
2.171438869E0,-2.183511972E0,-1.010353088E1,-7.661445141E-1,1.036513571E1
2.176474187E0,-2.461239338E0,-1.088882923E1,-9.289502501E-1,1.120210916E1
2.181509504E0,-2.748543501E0,-1.175074196E1,-1.139639974E0,1.212160085E1
2.186514306E0,-2.920926094E0,-1.232535076E1,-1.426944256E0,1.274685257E1
2.191549624E0,-2.758120298E0,-1.234450436E1,-1.666364431E0,1.275816546E1
2.196584942E0,-2.193088770E0,-1.167412758E1,-1.924938202E0,1.203329881E1
2.201620260E0,-1.561019540E0,-1.083136845E1,-1.762132406E0,1.108424265E1
2.206625061E0,-1.771709204E0,-1.079306126E1,-1.551442742E0,1.104699504E1
2.211660379E0,-1.589749932E0,-9.854534149E0,-1.867477298E0,1.015512775E1
2.216695697E0,-1.551442742E0,-9.519346237E0,-1.340752959E0,9.737686885E0
2.221700499E0,-1.331176162E0,-8.628703117E0,-6.703764796E-1,8.756480576E0
2.226735816E0,-1.896207690E0,-9.337387085E0,-2.873042040E-2,9.528023227E0
2.231771134E0,-2.097320795E0,-9.710882187E0,2.489969730E-1,9.937906563E0
2.236806453E0,-2.442085743E0,-1.013226128E1,6.224924326E-1,1.044097688E1
2.241811254E0,-2.451662540E0,-1.057279491E1,8.236053586E-1,1.088452880E1
2.246846571E0,-2.308010340E0,-1.072602367E1,1.206677675E0,1.103768846E1
2.251881889E0,-2.049436569E0,-1.071644688E1,1.130063176E0,1.096902305E1
2.256886690E0,-1.637633920E0,-1.031422138E1,1.197100878E0,1.051180565E1
2.261922009E0,-1.532289028E0,-1.012268448E1,1.407790542E0,1.033433718E1
2.266957327E0,-1.561019540E0,-1.017056847E1,1.541865945E0,1.040454687E1
2.271992644E0,-1.407790542E0,-1.009395409E1,1.388636947E0,1.028582014E1
2.276997446E0,-1.015141487E0,-9.969455719E0,1.043871999E0,1.007522845E1
2.282032764E0,-1.015141487E0,-9.979032516E0,9.481038451E-1,1.007524209E1
2.287068082E0,-1.091755986E0,-1.011310768E1,8.810662031E-1,1.020995376E1
2.292103400E0,-1.168370485E0,-1.020887566E1,7.182605267E-1,1.030058882E1
2.297108201E0,-1.216254473E0,-1.035252857E1,5.554547906E-1,1.043851775E1
2.302143520E0,-1.120486379E0,-1.029506683E1,2.777273953E-1,1.035958606E1
2.307178837E0,-1.091755986E0,-1.039083576E1,4.788403213E-2,1.044814299E1
2.312214155E0,-9.289502501E-1,-1.019929886E1,-1.532289088E-1,1.024266200E1
2.317218956E0,-8.906430602E-1,-1.005564690E1,-8.619125932E-2,1.009538055E1
2.322254275E0,-1.005564690E0,-1.012268448E1,9.576806799E-3,1.017251164E1
2.327289593E0,-1.168370485E0,-1.038125896E1,7.661445439E-2,1.044708079E1
2.332324910E0,-1.091755986E0,-1.059194851E1,2.873042040E-2,1.064810452E1
2.337329711E0,-7.852981687E-1,-1.068771648E1,1.149216816E-1,1.071714439E1
2.342365030E0,-4.405331016E-1,-1.065898609E1,9.576806799E-3,1.066809006E1
2.347400348E0,-2.777273953E-1,-1.049618053E1,2.873041928E-1,1.050378418E1
2.352405149E0,-1.436520964E-1,-1.034295177E1,1.350329757E0,1.043171500E1
2.357440467E0,-4.788403213E-2,-1.002691650E1,2.154781580E0,1.025594613E1
2.362475785E0,-2.681505978E-1,-9.720458984E0,2.049436569E0,9.937777310E0
2.367511103E0,-4.979939461E-1,-9.634267807E0,1.752555609E0,9.805027553E0
2.372515904E0,-9.002198577E-1,-9.500192642E0,1.426944256E0,9.648845835E0
2.377551222E0,-1.244984865E0,-9.260771751E0,9.672574997E-1,9.394012339E0
2.382586541E0,-1.513135433E0,-9.222464561E0,4.884171486E-1,9.358524603E0
2.387621858E0,-1.666364431E0,-9.203310966E0,-7.661445439E-2,9.353265362E0
2.392626660E0,-2.183511972E0,-9.414001465E0,-8.427590132E-1,9.700587140E0
2.397661977E0,-2.537853718E0,-9.787496567E0,-1.829170108E0,1.027529337E1
2.402697296E0,-2.911349297E0,-1.009395409E1,-2.777273893E0,1.086632938E1
2.407732614E0,-3.102885485E0,-1.028549004E1,-3.351882458E0,1.125408013E1
2.412737415E0,-2.997540474E0,-1.027591324E1,-3.763684988E0,1.134658391E1
2.417772733E0,-2.920926094E0,-1.015141487E1,-3.773261786E0,1.121697542E1
2.422808051E0,-2.557007313E0,-9.892841339E0,-3.399766445E0,1.076870503E1
2.427843369E0,-2.260126352E0,-9.701305389E0,-3.007117271E0,1.040510700E1
2.432848170E0,-1.991975784E0,-9.615114212E0,-2.499546528E0,1.013242921E1
2.437883488E0,-1.991975784E0,-9.548076630E0,-1.915361404E0,9.939936829E0
2.442918806E0,-1.934514999E0,-9.557653427E0,-1.493981838E0,9.865245514E0
2.447954124E0,-1.848323703E0,-9.528923035E0,-9.864110947E-1,9.756519951E0
2.452958925E0,-1.723825216E0,-9.509769440E0,-4.022258818E-1,9.673110866E0
2.457994243E0,-1.704671621E0,-9.509769440E0,-3.830722719E-2,9.661422648E0
2.463029562E0,-1.762132406E0,-9.576807022E0,4.309563041E-1,9.747105555E0
2.468064879E0,-1.800439715E0,-9.720458984E0,6.991068721E-1,9.910482150E0
2.473100197E0,-1.915361404E0,-9.797073364E0,8.906430602E-1,1.002220040E1
2.478104998E0,-1.924938202E0,-9.816226959E0,9.481038451E-1,1.004801471E1
2.483140316E0,-1.915361404E0,-9.892841339E0,1.110909581E0,1.013760520E1
2.488175635E0,-1.819593310E0,-9.883264542E0,1.216254473E0,1.012270284E1
2.493210952E0,-1.474828243E0,-9.749189377E0,1.264138460E0,9.940817768E0
2.498215754E0,-1.082179189E0,-9.864110947E0,1.350329757E0,1.001474847E1
2.503251071E0,-7.661445141E-1,-9.816226959E0,1.292868972E0,9.930599142E0
2.508286390E0,-5.267243981E-1,-9.825803757E0,1.426944256E0,9.942838024E0
2.513321708E0,-2.681505978E-1,-9.902418137E0,1.455674648E0,1.001243119E1
2.518326509E0,-1.340752989E-1,-1.012268448E1,1.388636947E0,1.021836728E1
2.523361827E0,5.746084079E-2,-1.041956615E1,1.177947283E0,1.048609653E1
2.528397145E0,2.681505978E-1,-1.048660374E1,1.072602391E0,1.054472563E1
2.533432463E0,4.309563041E-1,-1.058237171E1,8.523358107E-1,1.062538426E1
2.538437264E0,4.405331016E-1,-1.063983250E1,6.895300746E-1,1.067124907E1
2.543472582E0,8.619125932E-2,-1.113782597E1,5.267243981E-1,1.115060692E1
2.548507900E0,-1.771709204E0,-1.526543045E1,1.187524080E0,1.541371252E1
2.553543218E0,2.173935175E0,-1.200931549E1,-8.619125932E-2,1.220479748E1
2.558548019E0,4.252102375E0,-1.141555405E1,1.063025594E0,1.222805267E1
2.563583337E0,3.907337189E0,-1.385763931E1,1.369483352E0,1.446295046E1
2.568618656E0,2.135627985E0,-1.669237518E1,1.886630893E0,1.693386171E1
2.573623457E0,6.799532771E-1,-1.800439644E1,1.484405041E0,1.807827663E1
2.578658775E0,1.053448766E-1,-1.725740623E1,6.512228847E-1,1.727001039E1
2.583694092E0,1.340752989E-1,-1.561019516E1,1.915361360E-2,1.561078268E1
2.588729411E0,6.703764796E-1,-1.347456741E1,-1.244984865E-1,1.349180757E1
2.593764729E0,9.864110947E-1,-1.217212105E1,-3.830722570E-1,1.221803102E1
2.598769530E0,1.110909581E0,-1.094629002E1,-4.596867263E-1,1.101211592E1
2.603804848E0,1.589749932E0,-9.777919769E0,-1.532289088E-1,9.907497109E0
2.608840166E0,1.675941229E0,-9.002198219E0,3.351882398E-1,9.163007309E0
2.613875484E0,2.624045134E0,-8.437167168E0,6.607996821E-1,8.860477352E0
2.618880285E0,3.859453201E0,-7.479485989E0,9.672574997E-1,8.471934651E0
2.623915603E0,4.491522312E0,-6.761225700E0,8.714894056E-1,8.163788302E0
2.628950922E0,4.893748283E0,-6.215347767E0,1.101332784E0,7.987005323E0
2.633986239E0,4.232948780E0,-6.244078159E0,1.790862918E0,7.753293328E0
2.638991040E0,2.518700123E0,-6.943184853E0,2.624045134E0,7.838193610E0
2.644026358E0,-1.244984865E-1,-8.111555099E0,3.131615877E0,8.695967112E0
2.649061677E0,-2.796427488E0,-9.030928612E0,3.562572241E0,1.010295003E1
2.654096995E0,-4.989516258E0,-9.701305389E0,3.936067581E0,1.159755262E1
2.659101796E0,-6.416460514E0,-9.720458984E0,4.022258759E0,1.232220978E1
2.664137113E0,-7.393294811E0,-9.241618156E0,2.767697096E0,1.215435977E1
2.669172432E0,-8.858546257E0,-8.877699852E0,6.224924326E-1,1.255686638E1
2.674207750E0,-1.032379818E1,-8.370129585E0,-1.819593310E0,1.341457409E1
2.679212551E0,-1.140597725E1,-7.891288757E0,-2.557007313E0,1.410344077E1
2.684247869E0,-1.154962921E1,-7.201758862E0,-1.915361404E0,1.374510367E1
2.689283187E0,-1.184650993E1,-6.770802498E0,-8.140285611E-1,1.366916993E1
2.694318505E0,-1.156878281E1,-6.253654957E0,0.000000000E0,1.315085305E1
2.699323306E0,-1.133893967E1,-5.736507416E0,7.661445141E-1,1.273051639E1
2.704358624E0,-1.068771648E1,-5.248090267E0,1.139639974E0,1.196112513E1
2.709393943E0,-9.624691010E0,-4.912901878E0,1.043871999E0,1.085637834E1
2.714429260E0,-8.465897560E0,-4.769249916E0,9.672574997E-1,9.764873442E0
2.719434062E0,-7.374141216E0,-5.305551052E0,9.289502501E-1,9.131800436E0
2.724469379E0,-6.761225700E0,-6.224924564E0,8.044517636E-1,9.225562392E0
2.729504698E0,-6.167463779E0,-7.201758862E0,3.926490843E-1,9.489842647E0
2.734540016E0,-5.640739441E0,-8.130708694E0,9.576806799E-3,9.895779759E0
2.739544817E0,-5.008669853E0,-8.877699852E0,-2.873042040E-2,1.019319154E1
2.744580134E0,-4.539406300E0,-9.404424667E0,2.873042040E-2,1.044271221E1
2.749615453E0,-4.194641590E0,-9.998186111E0,8.619125932E-2,1.084279358E1
2.754650771E0,-3.821146011E0,-1.047702694E1,2.585737705E-1,1.115509349E1
2.759655572E0,-2.384624958E0,-9.595960617E0,7.374141216E-1,9.915274880E0
2.764690890E0,-1.982398987E0,-9.940725327E0,5.937620401E-1,1.015384061E1
2.769726208E0,-1.417367458E0,-9.739612579E0,2.011129409E-1,9.844258739E0
2.774761526E0,-1.149216771E0,-9.490615845E0,-6.703764945E-2,9.560176899E0
2.779766327E0,-1.350329757E0,-9.107542992E0,3.064578176E-1,9.212200942E0
2.784801645E0,-1.915361404E0,-8.590395927E0,1.120486379E0,8.872372920E0
2.789836964E0,-2.652775526E0,-8.245630264E0,1.781286120E0,8.843111256E0
2.794841764E0,-3.495534420E0,-8.111555099E0,2.183511972E0,9.098560960E0
2.799877083E0,-4.165910721E0,-8.130708694E0,2.202665567E0,9.397604568E0
2.804912400E0,-4.376600742E0,-8.015787125E0,1.905784607E0,9.329495820E0
2.809947719E0,-4.213795185E0,-7.785943985E0,1.675941229E0,9.010314789E0
2.814983037E0,-3.983951569E0,-7.594407558E0,1.283292055E0,8.671432106E0
2.819987838E0,-3.667917013E0,-7.316680431E0,1.024718285E0,8.248483213E0
2.825023156E0,-3.533841610E0,-7.479485989E0,9.576807022E-1,8.327538622E0
2.830058474E0,-3.332728863E0,-7.613561630E0,9.002198577E-1,8.359652993E0
2.835093792E0,-3.217807055E0,-7.785943985E0,9.097966552E-1,8.473661306E0
2.840098593E0,-3.064578056E0,-7.920019150E0,6.607996821E-1,8.517922177E0
2.845133911E0,-2.997540474E0,-8.101978302E0,7.086837292E-1,8.667729456E0
2.850169230E0,-2.853888512E0,-8.274360657E0,6.991068721E-1,8.780573690E0
2.855174030E0,-2.834734917E0,-8.628703117E0,7.757213712E-1,9.115480414E0
2.860209348E0,-2.786850691E0,-8.916007042E0,7.757213712E-1,9.373551194E0
2.865244666E0,-2.691082716E0,-9.394847870E0,8.044517636E-1,9.805724620E0
2.870279985E0,-2.528276920E0,-9.758766174E0,8.810662031E-1,1.011938630E1
2.875284785E0,-2.365471363E0,-1.006522369E1,8.331822157E-1,1.037296367E1
2.880320104E0,-2.087743998E0,-1.040041256E1,7.565677166E-1,1.063483197E1
2.885355421E0,-1.886630893E0,-1.069729328E1,6.895300746E-1,1.088425061E1
2.890390740E0,-1.637633920E0,-1.079306126E1,5.363011956E-1,1.092975915E1
2.895395540E0,-1.216254473E0,-1.082179165E1,3.926490843E-1,1.089700063E1
2.900430859E0,-5.841852427E-1,-1.049618053E1,2.298433632E-1,1.051493729E1
2.905466177E0,-1.723825186E-1,-1.027591324E1,2.298433632E-1,1.027992882E1
2.910501495E0,3.064578176E-1,-1.010353088E1,2.968810201E-1,1.011253633E1
2.915506295E0,3.543418646E-1,-1.014183807E1,2.298433632E-1,1.015062883E1
2.920541614E0,4.118026793E-1,-1.027591324E1,3.256114423E-1,1.028931471E1
2.925576932E0,5.554547906E-1,-1.041956615E1,3.639186621E-1,1.044070523E1
2.930612251E0,6.320692301E-1,-1.054406452E1,1.723825186E-1,1.056439889E1
2.935617051E0,9.768342972E-1,-1.065898609E1,2.106897533E-1,1.070572650E1
2.940652369E0,1.034295082E0,-1.086009884E1,7.661445439E-2,1.090950883E1
2.945687687E0,1.053448796E0,-1.105163479E1,3.830722719E-2,1.110179505E1
2.950723006E0,1.120486379E0,-1.118570995E1,-2.011129409E-1,1.124348893E1
2.955727806E0,1.254561663E0,-1.119528675E1,-5.171475410E-1,1.127722537E1
2.960763125E0,1.292868972E0,-1.126232433E1,-6.416460276E-1,1.135443390E1
2.965798442E0,9.576807022E-1,-1.133893967E1,-2.202665508E-1,1.138144202E1
2.970833761E0,1.063025594E0,-1.128147888E1,8.619125932E-2,1.133177912E1
2.975838561E0,1.053448796E0,-1.126232433E1,1.819593310E-1,1.131294891E1
2.980873880E0,1.053448796E0,-1.142513084E1,1.149216816E-1,1.147416996E1
2.985909198E0,9.002198577E-1,-1.164539719E1,3.256114423E-1,1.168467775E1
2.990944515E0,8.427590132E-1,-1.162624359E1,4.309563041E-1,1.166471200E1
2.995949317E0,6.129156351E-1,-1.174116516E1,7.661445141E-1,1.178208820E1
3.000984635E0,3.351882398E-1,-1.166455078E1,9.864110947E-1,1.171098215E1
3.006019953E0,-9.576806799E-3,-1.166455078E1,9.959878922E-1,1.170699913E1
3.011055271E0,-2.489969730E-1,-1.161666679E1,1.110909581E0,1.167232055E1
3.016060072E0,-6.512228847E-1,-1.166455078E1,1.015141487E0,1.172673648E1
3.021095391E0,-6.416460276E-1,-1.157835960E1,8.331822157E-1,1.162601881E1
3.026130708E0,-9.097966552E-1,-1.151132202E1,6.799532771E-1,1.156722098E1
3.031135509E0,-1.206677675E0,-1.143470764E1,5.267243981E-1,1.151025840E1
3.036170827E0,-1.273715258E0,-1.112824917E1,4.979939461E-1,1.121197030E1
3.041206146E0,-1.225831270E0,-1.096544361E1,4.118026793E-1,1.104143095E1
3.046241463E0,-1.158793569E0,-1.059194851E1,3.734954596E-1,1.066169192E1
3.051246265E0,-7.565677166E-1,-9.998186111E0,1.340752989E-1,1.002766655E1
3.056281582E0,-4.405331016E-1,-9.567230225E0,2.777273953E-1,9.581393223E0
3.061316901E0,3.830722719E-2,-9.107542992E0,-1.915361285E-1,9.109637363E0
3.066352219E0,3.830722719E-2,-9.059659004E0,-2.202665508E-1,9.062417231E0
3.071357020E0,1.915361360E-2,-8.925583839E0,-3.734954596E-1,8.933415505E0
3.076392338E0,-8.619125932E-2,-9.050082207E0,-3.543418646E-1,9.057426513E0
3.081427656E0,-1.340752989E-1,-9.404424667E0,-4.788403213E-2,9.405502240E0
3.086462974E0,-3.160346150E-1,-9.567230225E0,1.723825186E-1,9.574000615E0
3.091467775E0,-4.501099288E-1,-9.864110947E0,2.777273953E-1,9.878280023E0
3.096503093E0,-5.267243981E-1,-1.005564690E1,2.298433632E-1,1.007205545E1
3.101538412E0,-5.650315881E-1,-1.021845245E1,2.968810201E-1,1.023836753E1
3.106573729E0,-4.884171486E-1,-1.039083576E1,4.692635238E-1,1.041288756E1
3.111578530E0,-5.937620401E-1,-1.047702694E1,7.565677166E-1,1.052107606E1
3.116613848E0,-4.692635238E-1,-1.056321812E1,8.044517636E-1,1.060419388E1
3.121649167E0,-4.118026793E-1,-1.050575733E1,1.082179189E0,1.056937228E1
3.126653967E0,-2.394201756E-1,-1.040041256E1,1.149216771E0,1.046645129E1
3.131689286E0,-2.873042040E-2,-1.020887566E1,5.937620401E-1,1.022616844E1
3.136724603E0,-5.746084079E-2,-1.009395409E1,5.267243981E-1,1.010785088E1
3.141759922E0,-3.830722719E-2,-9.931148529E0,8.044517636E-1,9.963750358E0
3.146764722E0,3.830722719E-2,-9.873687744E0,1.024718285E0,9.926793273E0
3.151800041E0,4.309563041E-1,-9.873687744E0,8.140285611E-1,9.916555627E0
3.156835359E0,4.232948780E0,-7.967903137E0,2.097320795E0,9.263049730E0
3.161870677E0,3.055001259E0,-8.111555099E0,3.083731890E0,9.199987021E0
3.166875478E0,2.394201756E0,-8.542511940E0,2.652775526E0,9.259801849E0
3.171910796E0,1.733402014E0,-9.040505409E0,1.762132406E0,9.372327951E0
3.176946114E0,5.554547906E-1,-9.864110947E0,5.363011956E-1,9.894282883E0
3.181981433E0,-4.692635238E-1,-1.046745014E1,-1.436520964E-1,1.047894826E1
3.186986233E0,-1.273715258E0,-1.090798283E1,-5.554547906E-1,1.099613432E1
3.192021552E0,-1.647210717E0,-1.114740276E1,-8.619126081E-1,1.130136208E1
3.197056869E0,-1.628057122E0,-1.116655636E1,-7.182605267E-1,1.130745104E1
3.202061670E0,-1.197100878E0,-1.080263805E1,-6.033388376E-1,1.088549756E1
3.207096988E0,-5.458779931E-1,-1.054406452E1,-4.022258818E-1,1.056584427E1
3.212132307E0,-5.746084079E-2,-1.023760605E1,-1.053448766E-1,1.023830928E1
3.217167625E0,-1.244984865E-1,-1.017056847E1,1.723825186E-1,1.017279109E1
3.222172426E0,-1.915361285E-1,-1.017056847E1,1.915361285E-1,1.017417491E1
3.227207743E0,-6.224924326E-1,-1.022802925E1,2.202665508E-1,1.024932176E1
3.232243062E0,-1.082179189E0,-1.052491093E1,2.585737705E-1,1.058355905E1
3.237247863E0,-1.359906554E0,-1.051533413E1,1.340752989E-1,1.060375282E1
3.242283181E0,-1.474828243E0,-1.059194851E1,-2.968810201E-1,1.069825359E1
3.247318499E0,-1.407790542E0,-1.066856289E1,-5.650315881E-1,1.077586976E1
3.252353817E0,-1.541865945E0,-1.065898609E1,-8.523358107E-1,1.080360178E1
3.257389135E0,-1.465251446E0,-1.062067890E1,-7.565677166E-1,1.074793826E1
3.262393936E0,-1.015141487E0,-1.035252857E1,-8.714894056E-1,1.043862318E1
3.267429254E0,-7.852981687E-1,-1.017056847E1,-7.278373241E-1,1.022677385E1
3.272464573E0,-6.129156351E-1,-1.007480049E1,-2.202665508E-1,1.009583022E1
3.277499890E0,-3.639186621E-1,-9.979032516E0,9.576806426E-2,9.986125289E0
3.282504691E0,-2.011129409E-1,-9.873687744E0,3.734954596E-1,9.882795907E0
3.287540009E0,-1.053448766E-1,-9.787496567E0,6.320692301E-1,9.808450341E0
3.292575328E0,1.053448766E-1,-9.777919769E0,8.331822157E-1,9.813918950E0
3.297610646E0,1.915361285E-1,-9.835380554E0,9.959878922E-1,9.887537035E0
3.302615447E0,-9.576806426E-2,-9.979032516E0,9.193734527E-1,1.002175179E1
3.307650764E0,-7.661445439E-2,-1.007480049E1,6.033388376E-1,1.009314086E1
3.312686083E0,9.576806799E-3,-1.003649330E1,3.639186621E-1,1.004309346E1
3.317721401E0,2.394201756E-1,-9.931148529E0,7.661445439E-2,9.934329514E0
3.322726202E0,4.022258818E-1,-9.883264542E0,-9.576806426E-2,9.891909582E0
3.327761520E0,3.447650373E-1,-9.998186111E0,-1.532289088E-1,1.000530197E1
3.332796838E0,8.619125932E-2,-9.854534149E0,2.298433632E-1,9.857590994E0
3.337832156E0,4.118026793E-1,-9.825803757E0,4.979939461E-1,9.847029952E0
3.342867474E0,5.075707436E-1,-9.768342972E0,5.363011956E-1,9.796212097E0
3.347872275E0,6.320692301E-1,-9.710882187E0,7.086837292E-1,9.757201289E0
3.352907594E0,6.607996821E-1,-9.672574997E0,6.895300746E-1,9.719609818E0
3.357942911E0,6.607996821E-1,-9.787496567E0,7.182605267E-1,9.836037995E0
3.362947713E0,7.565677166E-1,-9.710882187E0,5.650315881E-1,9.756684286E0
3.367983030E0,6.895300746E-1,-9.806650162E0,5.267243981E-1,9.844962047E0
3.373018349E0,7.565677166E-1,-9.892841339E0,4.788403511E-1,9.933277030E0
3.378053667E0,8.714894056E-1,-9.873687744E0,4.692635238E-1,9.923175485E0
3.383058468E0,9.289502501E-1,-9.959878922E0,4.022258818E-1,1.001118986E1
3.388093786E0,8.810662031E-1,-1.003649330E1,2.777273953E-1,1.007891899E1
3.393129104E0,8.044517636E-1,-1.006522369E1,2.681505978E-1,1.010087993E1
3.398133904E0,8.523358107E-1,-1.005564690E1,2.106897533E-1,1.009390415E1
3.403169223E0,6.799532771E-1,-1.006522369E1,2.489969730E-1,1.009123699E1
3.408204541E0,6.895300746E-1,-9.988609314E0,3.447650373E-1,1.001831476E1
3.413239859E0,5.937620401E-1,-9.921571732E0,3.926490843E-1,9.947075565E0
3.418244660E0,4.596867263E-1,-9.959878922E0,5.075707436E-1,9.983392614E0
3.423279978E0,3.447650373E-1,-9.873687744E0,5.171475410E-1,9.893230725E0
3.428315296E0,3.734954596E-1,-9.864110947E0,4.979939461E-1,9.883733181E0
3.433320097E0,1.723825186E-1,-9.911994934E0,4.884171486E-1,9.925518154E0
3.438355415E0,1.915361360E-2,-9.921571732E0,4.309563041E-1,9.930945364E0
3.443390734E0,-9.576806799E-3,-9.940725327E0,4.309563041E-1,9.950067089E0
3.448426051E0,-1.244984865E-1,-9.988609314E0,4.213795066E-1,9.998268680E0
3.453430853E0,-7.661445439E-2,-1.003649330E1,4.405331016E-1,1.004644897E1
3.458466170E0,-7.661445439E-2,-1.002691650E1,4.979939461E-1,1.003956784E1
3.463501489E0,-8.619125932E-2,-1.002691650E1,4.692635238E-1,1.003826139E1
3.468506290E0,-1.340752989E-1,-1.013226128E1,4.309563041E-1,1.014230832E1
3.473541608E0,-8.619125932E-2,-1.010353088E1,4.788403511E-1,1.011523867E1
3.478576925E0,1.053448766E-1,-1.018014526E1,4.692635238E-1,1.019149957E1
3.483612244E0,0.000000000E0,-1.022802925E1,3.926490843E-1,1.023556328E1
3.488617045E0,9.576806426E-2,-1.022802925E1,2.777273953E-1,1.023224738E1
3.493652363E0,1.149216816E-1,-1.013226128E1,1.628057212E-1,1.013422080E1
3.498687681E0,5.746083856E-1,-9.998186111E0,9.959878922E-1,1.006408924E1
3.503692482E0,1.915361404E0,-9.921571732E0,2.499546528E0,1.040931928E1
3.508727801E0,1.905784607E0,-9.758766174E0,1.991975784E0,1.014068537E1
3.513763118E0,1.359906554E0,-9.892841339E0,1.417367458E0,1.008595985E1
3.518798436E0,1.063025594E0,-9.931148529E0,7.565677166E-1,1.001649286E1
3.523803237E0,7.757213712E-1,-9.950302124E0,4.118026793E-1,9.988985807E0
3.528838556E0,4.596867263E-1,-1.000776291E1,2.202665508E-1,1.002073589E1
3.533873874E0,3.830722570E-1,-9.979032516E0,1.436520964E-1,9.987415594E0
3.538878675E0,3.064578176E-1,-9.883264542E0,9.576806426E-2,9.888478443E0
3.543913992E0,2.681505978E-1,-9.844957352E0,1.723825186E-1,9.850117042E0
3.548949311E0,1.053448766E-1,-9.854534149E0,1.915361285E-1,9.856958300E0
3.553984629E0,-5.746084079E-2,-9.883264542E0,1.340752989E-1,9.884340946E0
3.558989430E0,-3.160346150E-1,-9.902418137E0,1.819593310E-1,9.909130740E0
3.564024748E0,-5.458779931E-1,-1.000776291E1,1.628057212E-1,1.002396164E1
3.569060065E0,-7.661445141E-1,-9.988609314E0,1.436520964E-1,1.001897846E1
3.574064867E0,-7.852981687E-1,-1.008437729E1,1.915361360E-2,1.011492587E1
3.579100185E0,-9.193734527E-1,-1.022802925E1,-9.576806426E-2,1.026971282E1
3.584135503E0,-9.193734527E-1,-1.024718285E1,-1.149216816E-1,1.028898493E1
3.589170821E0,-9.097966552E-1,-1.032379818E1,-1.340752989E-1,1.036467631E1
3.594175622E0,-8.619126081E-1,-1.023760605E1,-3.830722719E-2,1.027389597E1
3.599210941E0,-7.757213712E-1,-1.013226128E1,-1.915361360E-2,1.016193038E1
3.604246258E0,-5.458779931E-1,-1.014183807E1,8.619125932E-2,1.015688393E1
3.609281576E0,-4.118026793E-1,-1.002691650E1,1.149216816E-1,1.003602725E1
3.614286377E0,-3.256114423E-1,-9.979032516E0,1.532289088E-1,9.985519109E0
3.619321696E0,-1.340752989E-1,-9.988609314E0,2.489969730E-1,9.992611856E0
3.624357014E0,-4.788403213E-2,-9.911994934E0,4.213795066E-1,9.921063307E0
3.629392331E0,1.340752989E-1,-9.921571732E0,4.501099288E-1,9.932681449E0
3.634397132E0,2.873041928E-1,-9.950302124E0,5.075707436E-1,9.967381006E0
3.639432451E0,2.489969730E-1,-9.902418137E0,6.416460276E-1,9.926308179E0
3.644467769E0,2.394201756E-1,-9.988609314E0,7.852981687E-1,1.002229172E1
3.649503087E0,1.819593310E-1,-9.969455719E0,9.959878922E-1,1.002073592E1
3.654507888E0,2.968810201E-1,-9.988609314E0,1.120486379E0,1.005564240E1
3.659543206E0,3.351882398E-1,-9.998186111E0,1.120486379E0,1.006635815E1
3.664578524E0,3.064578176E-1,-9.931148529E0,1.235408068E0,1.001238536E1
3.669613842E0,4.788403511E-1,-9.931148529E0,1.244984865E0,1.002032866E1
3.674618643E0,4.405331016E-1,-9.873687744E0,1.110909581E0,9.945747794E0
3.679653962E0,5.458779931E-1,-9.816226959E0,1.120486379E0,9.895038364E0
3.684689279E0,5.746083856E-1,-9.825803757E0,1.005564690E0,9.893824064E0
3.689724597E0,5.554547906E-1,-9.854534149E0,8.140285611E-1,9.903686981E0
3.694729398E0,5.458779931E-1,-9.940725327E0,8.714894056E-1,9.993772890E0
3.699764717E0,5.458779931E-1,-1.007480049E1,6.799532771E-1,1.011246380E1
3.704800035E0,5.458779931E-1,-1.013226128E1,4.884171486E-1,1.015870330E1
3.709804836E0,4.596867263E-1,-1.021845245E1,5.171475410E-1,1.024185159E1
3.714840153E0,4.022258818E-1,-1.025675964E1,4.979939461E-1,1.027671650E1
3.719875472E0,3.926490843E-1,-1.033337498E1,4.118026793E-1,1.034902861E1
3.724910790E0,2.585737705E-1,-1.019929886E1,4.884171486E-1,1.021426008E1
3.729915591E0,3.256114423E-1,-1.015141487E1,5.075707436E-1,1.016931044E1
3.734950909E0,1.819593310E-1,-1.006522369E1,4.692635238E-1,1.007779963E1
3.739986227E0,1.436520964E-1,-9.931148529E0,4.405331016E-1,9.941952346E0
3.744991028E0,1.149216816E-1,-9.911994934E0,3.447650373E-1,9.918654823E0
3.750026346E0,3.830722719E-2,-9.758766174E0,3.926490843E-1,9.766737326E0
3.755061664E0,3.830722719E-2,-9.806650162E0,3.256114423E-1,9.812129109E0
3.760096983E0,-1.915361360E-2,-9.797073364E0,4.692635238E-1,9.808324098E0
3.765101783E0,-4.788403213E-2,-9.787496567E0,3.447650373E-1,9.793683927E0
3.770137102E0,-6.703764945E-2,-9.873687744E0,3.734954596E-1,9.880976803E0
3.775172419E0,-5.746084079E-2,-9.921571732E0,5.363011956E-1,9.936221935E0
3.780177220E0,-1.244984865E-1,-9.825803757E0,5.746083856E-1,9.843378187E0
3.785212538E0,-1.819593310E-1,-9.931148529E0,5.075707436E-1,9.945775403E0
3.790247857E0,-1.149216816E-1,-9.921571732E0,4.692635238E-1,9.933327784E0
3.795283175E0,-1.915361360E-2,-9.911994934E0,3.351882398E-1,9.917679244E0
3.800287976E0,9.576806426E-2,-9.998186111E0,3.351882398E-1,1.000426150E1
3.805323293E0,9.576806426E-2,-9.940725327E0,3.351882398E-1,9.946835813E0
3.810358612E0,1.628057212E-1,-1.005564690E1,3.926490843E-1,1.006462684E1
3.815363413E0,2.489969730E-1,-1.005564690E1,4.213795066E-1,1.006755157E1
3.820398731E0,2.106897533E-1,-1.009395409E1,2.394201756E-1,1.009899110E1
3.825434049E0,2.394201756E-1,-1.011310768E1,2.106897533E-1,1.011813516E1
3.830469367E0,2.681505978E-1,-1.006522369E1,1.915361285E-1,1.007061661E1
3.835474169E0,3.351882398E-1,-1.012268448E1,5.746084079E-2,1.012839543E1
3.840509486E0,2.394201756E-1,-1.008437729E1,5.746084079E-2,1.008738267E1
3.845544804E0,2.681505978E-1,-1.009395409E1,5.746084079E-2,1.009767872E1
3.850580123E0,2.298433632E-1,-9.998186111E0,2.873042040E-2,1.000086891E1
3.855584924E0,1.628057212E-1,-1.003649330E1,7.661445439E-2,1.003810606E1
3.860620242E0,2.011129409E-1,-1.000776291E1,9.576806799E-3,1.000978804E1
3.865655559E0,1.915361285E-1,-9.959878922E0,7.661445439E-2,9.962015057E0
3.870660360E0,2.489969730E-1,-9.988609314E0,1.149216816E-1,9.992373217E0
3.875695678E0,2.298433632E-1,-1.009395409E1,2.011129409E-1,1.009857334E1
3.880730997E0,1.915361285E-1,-1.003649330E1,3.064578176E-1,1.004299757E1
3.885766315E0,1.628057212E-1,-1.006522369E1,2.489969730E-1,1.006961932E1
3.890771116E0,1.915361285E-1,-1.012268448E1,4.309563041E-1,1.013366422E1
3.895806433E0,1.915361285E-1,-1.011310768E1,4.405331016E-1,1.012450999E1
3.900841752E0,2.106897533E-1,-1.013226128E1,4.213795066E-1,1.014320804E1
3.905846553E0,2.298433632E-1,-1.016099167E1,4.309563041E-1,1.017272348E1
3.910881871E0,1.723825186E-1,-1.012268448E1,5.267243981E-1,1.013784471E1
3.915917189E0,1.628057212E-1,-1.000776291E1,4.788403511E-1,1.002053453E1
3.920952507E0,1.723825186E-1,-1.001733971E1,4.692635238E-1,1.002980652E1
3.925957309E0,9.576806426E-2,-9.950302124E0,4.884171486E-1,9.962742353E0
3.930992626E0,1.149216816E-1,-9.864110947E0,5.267243981E-1,9.878832439E0
3.936027944E0,5.746084079E-2,-9.911994934E0,3.543418646E-1,9.918493004E0
3.941032745E0,8.619125932E-2,-9.864110947E0,4.118026793E-1,9.873079314E0
3.946068064E0,5.746084079E-2,-9.931148529E0,4.405331016E-1,9.941080538E0
3.951103382E0,-9.576806799E-3,-9.959878922E0,3.543418646E-1,9.966184727E0
3.956138699E0,2.873042040E-2,-1.000776291E1,3.256114423E-1,1.001309975E1
3.961143500E0,-9.576806799E-3,-1.000776291E1,2.968810201E-1,1.001217002E1
3.966178819E0,5.746084079E-2,-9.950302124E0,1.723825186E-1,9.951961105E0
3.971214137E0,5.746084079E-2,-9.969455719E0,2.202665508E-1,9.972054274E0
3.976249454E0,1.244984865E-1,-9.931148529E0,2.106897533E-1,9.934163334E0
3.981254256E0,1.723825186E-1,-9.921571732E0,1.340752989E-1,9.923974886E0
3.986289574E0,3.160346150E-1,-9.911994934E0,1.628057212E-1,9.918368170E0
3.991324892E0,2.777273953E-1,-9.883264542E0,1.819593310E-1,9.888840160E0
3.996329693E0,2.489969730E-1,-9.931148529E0,1.915361285E-1,9.936115775E0
4.001365011E0,2.873041928E-1,-9.950302124E0,1.436520964E-1,9.955485522E0
4.006400330E0,3.160346150E-1,-9.902418137E0,0.000000000E0,9.907459959E0
4.011405130E0,3.734954596E-1,-9.950302124E0,1.915361360E-2,9.957327858E0
4.016440449E0,4.692635238E-1,-1.003649330E1,-3.830722719E-2,1.004753072E1
4.021475766E0,5.075707436E-1,-1.000776291E1,-1.628057212E-1,1.002194852E1
4.026511085E0,5.458779931E-1,-1.000776291E1,-1.819593310E-1,1.002429102E1
4.031515885E0,5.746083856E-1,-1.003649330E1,-2.202665508E-1,1.005534136E1
4.036551204E0,6.033388376E-1,-1.013226128E1,-2.681505978E-1,1.015375010E1
4.041586521E0,5.841852427E-1,-1.010353088E1,-2.873041928E-1,1.012448282E1
4.046591323E0,5.171475410E-1,-1.009395409E1,-3.447650373E-1,1.011307142E1
4.051626640E0,4.788403511E-1,-1.006522369E1,-3.447650373E-1,1.008250361E1
4.056661959E0,4.692635238E-1,-1.004607010E1,-3.639186621E-1,1.006360619E1
4.061666760E0,3.734954596E-1,-9.950302124E0,-3.830722570E-1,9.964675387E0
4.066702078E0,2.968810201E-1,-9.844957352E0,-5.746083856E-1,9.866179524E0
4.071737396E0,3.351882398E-1,-9.768342972E0,-6.320692301E-1,9.794508006E0
4.076772714E0,2.681505978E-1,-9.768342972E0,-7.757213712E-1,9.802763529E0
4.081777515E0,3.064578176E-1,-9.758766174E0,-8.140285611E-1,9.797452533E0
4.086812833E0,3.256114423E-1,-9.816226959E0,-9.002198577E-1,9.862795259E0
4.091848151E0,3.830722570E-1,-9.931148529E0,-8.810662031E-1,9.977511369E0
4.096852952E0,3.064578176E-1,-1.003649330E1,-9.385270476E-1,1.008493665E1
4.101888271E0,3.351882398E-1,-1.010353088E1,-9.097966552E-1,1.014994667E1
4.106923588E0,2.777273953E-1,-1.017056847E1,-9.289502501E-1,1.021667970E1
4.111958906E0,3.734954596E-1,-1.021845245E1,-9.385270476E-1,1.026825703E1
4.116963707E0,3.160346150E-1,-1.018972206E1,-8.906430602E-1,1.023345292E1
4.121999026E0,4.118026793E-1,-1.018014526E1,-8.140285611E-1,1.022093839E1
4.127034344E0,3.830722570E-1,-1.015141487E1,-6.703764796E-1,1.018073538E1
4.132039145E0,4.309563041E-1,-1.013226128E1,-5.554547906E-1,1.015662207E1
4.137074463E0,4.884171486E-1,-1.003649330E1,-7.086837292E-1,1.007333022E1
4.142109781E0,4.118026793E-1,-1.002691650E1,-7.948749661E-1,1.006680000E1
4.147145099E0,5.650315881E-1,-9.988609314E0,-8.906430602E-1,1.004414366E1
4.152149900E0,6.033388376E-1,-9.998186111E0,-9.576807022E-1,1.006205226E1
4.157185218E0,5.554547906E-1,-9.969455719E0,-1.091755986E0,1.004442674E1
4.162220537E0,6.416460276E-1,-9.988609314E0,-1.187524080E0,1.007939676E1
4.167225337E0,5.746083856E-1,-1.010353088E1,-1.264138460E0,1.019850759E1
4.172260655E0,4.884171486E-1,-1.007480049E1,-1.254561663E0,1.016435346E1
4.177295973E0,5.267243981E-1,-1.013226128E1,-1.407790542E0,1.024314558E1
4.182331291E0,4.884171486E-1,-1.013226128E1,-1.474828243E0,1.025067745E1
4.187336092E0,7.278373241E-1,-1.009395409E1,-1.800439715E0,1.027906802E1
4.192371411E0,8.044517636E-1,-1.007480049E1,-1.944091797E0,1.029214460E1
4.197406728E0,7.565677166E-1,-1.015141487E1,-1.972822189E0,1.036897517E1
4.202411530E0,8.810662031E-1,-1.020887566E1,-1.915361404E0,1.042429993E1
4.207446847E0,8.331822157E-1,-1.024718285E1,-1.886630893E0,1.045267071E1
4.212482166E0,9.672574997E-1,-1.041956615E1,-1.972822189E0,1.064870759E1
4.217517484E0,1.072602391E0,-1.044829655E1,-2.049436569E0,1.070128809E1
4.222522285E0,1.130063176E0,-1.049618053E1,-2.240972757E0,1.079207151E1
4.227557603E0,1.235408068E0,-1.052491093E1,-2.327163935E0,1.084968548E1
4.232592921E0,1.484405041E0,-1.048660374E1,-2.336740971E0,1.084585979E1
4.237597721E0,1.388636947E0,-1.048660374E1,-2.317587137E0,1.082905262E1
4.242633040E0,1.407790542E0,-1.052491093E1,-2.288856745E0,1.086252684E1
4.247668358E0,1.493981838E0,-1.043871975E1,-2.173935175E0,1.076684011E1
4.252703677E0,1.331176162E0,-1.040998936E1,-1.963245392E0,1.067680855E1
4.257708477E0,1.015141487E0,-1.051533413E1,-1.407790542E0,1.065760941E1
4.262743795E0,9.672574997E-1,-1.063025570E1,-1.091755986E0,1.072985808E1
4.267779113E0,8.619126081E-1,-1.055364132E1,-8.331822157E-1,1.062150795E1
4.272783914E0,6.320692301E-1,-1.055364132E1,-7.469909191E-1,1.059890806E1
4.277819232E0,5.554547906E-1,-1.060152531E1,-6.895300746E-1,1.063843600E1
4.282854551E0,4.596867263E-1,-1.079306126E1,-8.044517636E-1,1.083275707E1
4.287889868E0,4.596867263E-1,-1.083136845E1,-1.072602391E0,1.089405022E1
4.292894670E0,5.171475410E-1,-1.083136845E1,-1.647210717E0,1.096810317E1
4.297929987E0,7.948749661E-1,-1.078348446E1,-2.250549555E0,1.104447086E1
4.302965306E0,6.703764796E-1,-1.086967564E1,-2.451662540E0,1.116288055E1
4.307970107E0,7.086837292E-1,-1.087925243E1,-2.662352324E0,1.122267731E1
4.313005425E0,6.799532771E-1,-1.095586681E1,-2.806004286E0,1.132991678E1
4.318040743E0,8.427590132E-1,-1.090798283E1,-2.748543501E0,1.128046202E1
4.323076061E0,9.289502501E-1,-1.093671322E1,-2.652775526E0,1.129211506E1
4.328080862E0,1.101332784E0,-1.098459721E1,-2.614468336E0,1.134503214E1
4.333116180E0,1.130063176E0,-1.096544361E1,-2.557007313E0,1.131619560E1
4.338151498E0,1.264138460E0,-1.107078838E1,-3.026270866E0,1.154637245E1
4.343156299E0,1.513135433E0,-1.107078838E1,-3.275267839E0,1.164385304E1
4.348191618E0,1.589749932E0,-1.108036518E1,-3.485957623E0,1.172406491E1
4.353226935E0,1.503558636E0,-1.113782597E1,-3.428496838E0,1.175016793E1
4.358262253E0,1.493981838E0,-1.112824917E1,-3.323152065E0,1.170953675E1
4.363267054E0,1.417367458E0,-1.120486355E1,-3.169923067E0,1.173057159E1
4.368302373E0,1.225831270E0,-1.107078838E1,-2.863465309E0,1.150062830E1
4.373337691E0,1.120486379E0,-1.101332760E1,-2.509123325E0,1.135097240E1
4.378373008E0,1.168370485E0,-1.088882923E1,-2.394201756E0,1.120999080E1
4.383377810E0,1.350329757E0,-1.062067890E1,-2.384624958E0,1.096852985E1
4.388413128E0,1.532289028E0,-1.042914295E1,-2.470816135E0,1.082681231E1
4.393448446E0,1.647210717E0,-1.010353088E1,-2.576161146E0,1.055609993E1
4.398483764E0,1.589749932E0,-9.825803757E0,-2.547430515E0,1.027439178E1
4.403488565E0,1.781286120E0,-9.624691010E0,-2.959233284E0,1.022568917E1
4.408523883E0,1.800439715E0,-9.442731857E0,-2.987963676E0,1.006651355E1
4.413559201E0,1.704671621E0,-9.165003777E0,-3.074155092E0,9.815988442E0
4.418564002E0,1.647210717E0,-9.097966194E0,-2.901772499E0,9.690540524E0
4.423599320E0,1.561019540E0,-8.963891029E0,-2.901772499E0,9.550309316E0
4.428634639E0,1.388636947E0,-8.896853447E0,-2.748543501E0,9.414712168E0
4.433669956E0,1.254561663E0,-8.829815865E0,-2.499546528E0,9.262143705E0
4.438674758E0,1.331176162E0,-8.705317497E0,-2.288856745E0,9.099090498E0
4.443710075E0,1.503558636E0,-8.638279915E0,-2.317587137E0,9.069276630E0
4.448745394E0,1.618480325E0,-8.638279915E0,-2.432508945E0,9.119016297E0
4.453750194E0,1.695094824E0,-8.657433510E0,-2.422932148E0,9.148502699E0
4.458785513E0,1.781286120E0,-8.638279915E0,-2.662352324E0,9.213087432E0
4.463820831E0,1.924938202E0,-8.657433510E0,-2.604891539E0,9.243484299E0
4.468856149E0,2.240972757E0,-8.695740700E0,-2.901772499E0,9.437062512E0
4.473860949E0,2.308010340E0,-8.762778282E0,-2.834734917E0,9.494678352E0
4.478896268E0,2.432508945E0,-8.772355080E0,-2.738966703E0,9.506484735E0
4.483931586E0,2.671929121E0,-8.714894295E0,-2.844311714E0,9.548753684E0
4.488936387E0,2.892195702E0,-8.734047890E0,-3.064578056E0,9.697423739E0
4.493971705E0,2.968810081E0,-8.667010307E0,-3.189076662E0,9.700572711E0
4.499007023E0,3.189076662E0,-8.647856712E0,-3.418920040E0,9.830801082E0
4.504042341E0,3.246537447E0,-8.638279915E0,-3.409343243E0,9.837860877E0
4.509047142E0,3.332728863E0,-8.676587105E0,-3.505111217E0,9.933581937E0
4.514082460E0,3.332728863E0,-8.686163902E0,-3.629609823E0,9.986520539E0
4.519117779E0,3.399766445E0,-8.724471092E0,-3.964797974E0,1.016830520E1
4.524153096E0,3.236960649E0,-8.743624687E0,-3.888183594E0,1.010182452E1
4.529157898E0,2.987963676E0,-8.686163902E0,-4.127603531E0,1.007047572E1
4.534193215E0,2.997540474E0,-8.599972725E0,-4.108449936E0,9.991203163E0
4.539228534E0,2.815581083E0,-8.590395927E0,-4.271255970E0,9.998301185E0
4.544263852E0,2.537853718E0,-8.532935143E0,-4.194641590E0,9.841072183E0
4.549268653E0,2.279279947E0,-8.504204750E0,-4.003105164E0,9.671683745E0
4.554303971E0,2.106897593E0,-8.398859978E0,-3.763684988E0,9.441673108E0
4.559339289E0,1.953668594E0,-8.303091049E0,-3.734954596E0,9.311714546E0
4.564344089E0,1.647210717E0,-8.082824707E0,-3.600879431E0,9.000649480E0
4.569379408E0,1.474828243E0,-7.891288757E0,-3.303998232E0,8.681241899E0
4.574414726E0,1.436521053E0,-7.766790390E0,-3.342305660E0,8.576574656E0
4.579450044E0,1.561019540E0,-7.536946774E0,-3.591302633E0,8.493515366E0
4.584454845E0,1.541865945E0,-7.335834026E0,-3.495534420E0,8.271068391E0
4.589490163E0,1.618480325E0,-7.278373241E0,-3.505111217E0,8.238931985E0
4.594525481E0,1.666364431E0,-7.201758862E0,-3.629609823E0,8.235057291E0
4.599530282E0,1.675941229E0,-7.307103634E0,-3.447650433E0,8.251595968E0
4.604565600E0,1.781286120E0,-7.240066051E0,-3.524264812E0,8.246937561E0
4.609600919E0,1.819593310E0,-7.287950039E0,-3.438073635E0,8.261082611E0
4.614636236E0,1.810016513E0,-7.278373241E0,-3.380612850E0,8.226750273E0
4.619641038E0,1.790862918E0,-7.230489254E0,-3.284844637E0,8.141091397E0
4.624676355E0,1.886630893E0,-7.163451672E0,-3.198653460E0,8.068816514E0
4.629711674E0,1.877054095E0,-7.153874874E0,-3.169923067E0,8.046717967E0
4.634746992E0,1.924938202E0,-7.125144482E0,-3.169923067E0,8.032526577E0
4.639751793E0,1.905784607E0,-7.115567684E0,-3.064578056E0,7.978405674E0
4.644787110E0,1.867477298E0,-7.038952827E0,-3.189076662E0,7.950128195E0
4.649822429E0,1.800439715E0,-7.086836815E0,-3.198653460E0,7.980991365E0
4.654827230E0,1.714248419E0,-7.134721279E0,-3.275267839E0,8.035563129E0
4.659862548E0,1.733402014E0,-7.249642849E0,-3.418920040E0,8.200671815E0
4.664897866E0,1.656787634E0,-7.316680431E0,-3.390189648E0,8.232383837E0
4.669933184E0,1.714248419E0,-7.335834026E0,-3.390189648E0,8.261143647E0
4.674937986E0,1.723825216E0,-7.354987621E0,-3.466804028E0,8.311807652E0
4.679973303E0,1.762132406E0,-7.479485989E0,-3.466804028E0,8.430097949E0
4.685008621E0,1.742978811E0,-7.383718014E0,-3.495534420E0,8.353204638E0
4.690043940E0,1.982398987E0,-7.393294811E0,-3.428496838E0,8.387210768E0
4.695048741E0,2.231395960E0,-7.469909191E0,-3.447650433E0,8.524374743E0
4.700084059E0,2.375048161E0,-7.651868820E0,-3.658340216E0,8.807690012E0
4.705119376E0,2.480392933E0,-7.642292023E0,-3.734954596E0,8.860409826E0
4.710154695E0,2.557007313E0,-7.766790390E0,-3.773261786E0,9.005488541E0
4.715159496E0,2.604891539E0,-7.967903137E0,-3.926490784E0,9.256903921E0
4.720194814E0,2.537853718E0,-7.948749542E0,-4.070142746E0,9.283823714E0
4.725230132E0,2.547430515E0,-8.044517517E0,-4.462791920E0,9.545688872E0
4.730265450E0,2.509123325E0,-8.073247910E0,-4.769249916E0,9.706635691E0
4.735270251E0,2.461239338E0,-8.111555099E0,-5.075707436E0,9.880173641E0
4.740305569E0,2.355894566E0,-8.226476669E0,-5.171475887E0,9.998465905E0
4.745340887E0,2.288856745E0,-8.197746277E0,-5.286397457E0,1.001937659E1
4.750345688E0,2.212242365E0,-8.283937454E0,-5.152322292E0,1.000320254E1
4.755381007E0,2.183511972E0,-8.245630264E0,-4.989516258E0,9.881974270E0
4.760416324E0,2.126051188E0,-8.255207062E0,-4.759673119E0,9.763351140E0
4.765451642E0,2.193088770E0,-8.207323074E0,-4.491522312E0,9.609555821E0
4.770456443E0,2.078166962E0,-8.121131897E0,-4.213795185E0,9.382304145E0
4.775491762E0,2.078166962E0,-8.082824707E0,-4.108449936E0,9.302160719E0
4.780527080E0,2.097320795E0,-8.149862289E0,-4.156333923E0,9.385846874E0
4.785562397E0,2.193088770E0,-8.130708694E0,-4.386177540E0,9.495083761E0
4.790567199E0,2.068590164E0,-8.264783859E0,-4.568136692E0,9.667139719E0
4.795602516E0,2.059013367E0,-8.312667847E0,-4.539406300E0,9.692584399E0
4.800637835E0,1.991975784E0,-8.293514252E0,-4.424484730E0,9.608663346E0
4.805673153E0,1.896207690E0,-8.360552788E0,-4.309563160E0,9.595143623E0
4.810677954E0,1.723825216E0,-8.322244644E0,-4.328716755E0,9.537773222E0
4.815713271E0,1.551442742E0,-8.446743965E0,-4.194641590E0,9.557691995E0
4.820748590E0,1.302445769E0,-8.427590370E0,-4.347870350E0,9.572075063E0
4.825753391E0,1.101332784E0,-8.475474358E0,-4.472368717E0,9.646174445E0
4.830788709E0,8.714894056E-1,-8.456320763E0,-4.635174274E0,9.682649182E0
4.835824027E0,7.374141216E-1,-8.465897560E0,-4.692635536E0,9.707524368E0
4.840859345E0,6.607996821E-1,-8.360552788E0,-4.903325081E0,9.714838958E0
4.845864147E0,6.895300746E-1,-8.418013573E0,-4.960785866E0,9.795294821E0
4.850899464E0,6.512228847E-1,-8.322244644E0,-5.018246651E0,9.739951058E0
4.855934782E0,7.757213712E-1,-8.245630264E0,-4.884171486E0,9.614951545E0
4.860970101E0,9.385270476E-1,-8.274360657E0,-4.865017891E0,9.644390928E0
4.865974902E0,1.149216771E0,-8.283937454E0,-4.759673119E0,9.622827398E0
4.871010220E0,1.379060149E0,-8.274360657E0,-4.577713490E0,9.556270819E0
4.876045537E0,1.656787634E0,-8.274360657E0,-4.501099110E0,9.563988851E0
4.881050338E0,2.020706177E0,-8.312667847E0,-4.414907932E0,9.626791378E0
4.886085657E0,2.327163935E0,-8.303091049E0,-4.462791920E0,9.709455426E0
4.891120975E0,2.595314741E0,-8.360552788E0,-4.501099110E0,9.843495046E0
4.896125776E0,2.949656487E0,-8.274360657E0,-4.414907932E0,9.831425620E0
4.901161094E0,3.313575268E0,-8.178592682E0,-4.663905144E0,9.981040552E0
4.906196412E0,3.447650433E0,-8.331821442E0,-4.750096321E0,1.019161210E1
4.911231730E0,3.476380825E0,-8.360552788E0,-4.874594688E0,1.028327477E1
4.916236531E0,3.572149038E0,-8.465897560E0,-4.941632271E0,1.043318742E1
4.921271849E0,3.552995205E0,-8.628703117E0,-4.960785866E0,1.056823963E1
4.926307168E0,3.390189648E0,-8.925583839E0,-5.027823448E0,1.079066455E1
4.931311968E0,3.141192675E0,-9.299078941E0,-5.066130638E0,1.104561633E1
4.936347287E0,3.064578056E0,-9.662998199E0,-5.257667065E0,1.141964254E1
4.941382604E0,2.920926094E0,-1.015141487E1,-5.458779812E0,1.189038730E1
4.946417923E0,2.719813108E0,-1.073560047E1,-5.554547787E0,1.238965302E1
4.951422723E0,2.509123325E0,-1.139640045E1,-5.640739441E0,1.296115676E1
4.956458042E0,2.269703150E0,-1.210508347E1,-5.650316238E0,1.355030154E1
4.961493360E0,1.972822189E0,-1.288080502E1,-5.573701382E0,1.417297824E1
4.966498161E0,1.886630893E0,-1.347456741E1,-5.679046631E0,1.474363977E1
4.971533478E0,1.589749932E0,-1.413536644E1,-5.726930618E0,1.533406742E1
4.976568797E0,1.264138460E0,-1.466209126E1,-5.784391403E0,1.581246818E1
4.981573598E0,1.015141487E0,-1.510262394E1,-5.956773758E0,1.626661968E1
4.986608916E0,7.565677166E-1,-1.537077522E1,-6.119579315E0,1.656147266E1
4.991644234E0,3.639186621E-1,-1.538035202E1,-6.512228489E0,1.670619002E1
4.996679552E0,-1.532289088E-1,-1.509304714E1,-6.684611320E0,1.650780360E1
5.001684354E0,-5.554547906E-1,-1.432690334E1,-6.732495308E0,1.583967116E1
5.006719671E0,-9.097966552E-1,-1.331176186E1,-6.560112476E0,1.486828199E1
5.011754989E0,-1.264138460E0,-1.234450436E1,-5.861005783E0,1.372356450E1
5.016790308E0,-1.292868972E0,-1.125274754E1,-5.305551052E0,1.250778595E1
5.021795109E0,-9.481038451E-1,-1.019929886E1,-4.970362663E0,1.138547773E1
5.026830427E0,-7.852981687E-1,-9.337387085E0,-4.596867085E0,1.043717767E1
5.031865744E0,-8.619125932E-2,-8.513781548E0,-4.663905144E0,9.707930591E0
5.036870545E0,2.681505978E-1,-8.034940720E0,-4.721365929E0,9.323275891E0
5.041905864E0,6.607996821E-1,-7.747636795E0,-4.893748283E0,9.187562484E0
5.046941182E0,8.523358107E-1,-7.603984833E0,-4.683058739E0,8.970958746E0
5.051976500E0,1.024718285E0,-7.469909191E0,-4.367023945E0,8.713236426E0
5.056981301E0,1.015141487E0,-7.594407558E0,-3.600879431E0,8.465924112E0
5.062016619E0,8.714894056E-1,-7.498639584E0,-2.509123325E0,7.955173741E0
5.067051937E0,7.469909191E-1,-7.479485989E0,-1.436521053E0,7.652731462E0
5.072056738E0,8.714894056E-1,-7.192182064E0,-4.118026793E-1,7.256483864E0
5.077092056E0,1.139639974E0,-6.780379295E0,5.267243981E-1,6.895633492E0
5.082127375E0,1.283292055E0,-6.378153324E0,1.675941229E0,6.718367162E0
5.087162692E0,1.225831270E0,-6.071695328E0,2.853888512E0,6.820031238E0
5.092167494E0,1.264138460E0,-5.726930618E0,3.849876404E0,7.015506302E0
5.097202811E0,1.149216771E0,-5.564124584E0,4.213795185E0,7.073630711E0
5.102238129E0,1.024718285E0,-5.573701382E0,4.175487995E0,7.039239636E0
5.107242930E0,1.082179189E0,-5.573701382E0,3.811569214E0,6.838517293E0
5.112278249E0,1.082179189E0,-5.765237808E0,2.758120298E0,6.481998639E0
5.117313567E0,6.512228847E-1,-6.186617374E0,1.388636947E0,6.373902914E0
5.122348884E0,-3.256114423E-1,-6.991068840E0,-4.213795066E-1,7.011321347E0
5.127353685E0,-1.570596337E0,-8.149862289E0,-2.432508945E0,8.648937967E0
5.132389004E0,-1.800439715E0,-9.528923035E0,-4.577713490E0,1.072368492E1
5.137424322E0,-1.561019540E0,-1.084094524E1,-5.573701382E0,1.228938659E1
5.142429123E0,-1.082179189E0,-1.190397072E1,-5.516240597E0,1.316451826E1
5.147464441E0,2.202665508E-1,-1.261265469E1,-4.893748283E0,1.353057086E1
5.152499759E0,1.790862918E0,-1.335006905E1,-4.376600742E0,1.416284461E1
5.157535077E0,1.704671621E0,-1.373314095E1,-2.671929121E0,1.409412185E1
5.162539878E0,1.829170108E0,-1.371398735E1,-2.489969730E-1,1.383767726E1
5.167575196E0,2.317587137E0,-1.322556973E1,2.681505978E-1,1.342977325E1
5.172610515E0,1.695094824E0,-1.312980175E1,1.244984865E0,1.329718120E1
5.177645832E0,7.661445141E-1,-1.281376743E1,2.288856745E0,1.303911341E1
5.182650633E0,-6.703764945E-2,-1.209550667E1,2.509123325E0,1.235319697E1
5.187685951E0,-3.926490843E-1,-1.134851646E1,2.317587137E0,1.158940073E1
5.192721270E0,-7.182605267E-1,-1.037168217E1,1.819593310E0,1.055455394E1
5.197756588E0,-3.926490843E-1,-9.567230225E0,1.532289028E0,9.697111794E0
5.202761389E0,-3.830722719E-2,-8.887276649E0,1.206677675E0,8.968903205E0
5.207796706E0,3.064578176E-1,-8.360552788E0,9.193734527E-1,8.416531759E0
5.212832025E0,6.224924326E-1,-7.948749542E0,8.810662031E-1,8.021620395E0
5.217867343E0,7.757213712E-1,-7.795520782E0,8.140285611E-1,7.876200252E0
5.222872144E0,9.289502501E-1,-7.661445618E0,8.714894056E-1,7.766607451E0
5.227907462E0,1.082179189E0,-7.680599213E0,7.852981687E-1,7.796115012E0
5.232942780E0,1.168370485E0,-7.891288757E0,7.852981687E-1,8.015873069E0
5.237947581E0,1.225831270E0,-8.255207062E0,5.746083856E-1,8.365481500E0
5.242982899E0,1.225831270E0,-8.829815865E0,5.554547906E-1,8.931788204E0
5.248018217E0,1.244984865E0,-9.366117477E0,3.351882398E-1,9.454443139E0
5.253053536E0,1.283292055E0,-9.758766174E0,3.926490843E-1,9.850610593E0
5.258088853E0,1.292868972E0,-1.006522369E1,3.256114423E-1,1.015314045E1
5.263093655E0,1.235408068E0,-1.041956615E1,3.639186621E-1,1.049885845E1
5.268128972E0,1.407790542E0,-1.069729328E1,4.501099288E-1,1.079891461E1
5.273164291E0,1.369483352E0,-1.087925243E1,5.746083856E-1,1.098015451E1
5.278199609E0,1.503558636E0,-1.101332760E1,7.948749661E-1,1.114387274E1
5.283204410E0,1.618480325E0,-1.099417400E1,6.895300746E-1,1.113403756E1
5.288239728E0,1.513135433E0,-1.104205799E1,6.512228847E-1,1.116426060E1
5.293275046E0,1.417367458E0,-1.096544361E1,6.799532771E-1,1.107755481E1
5.298279846E0,1.321599364E0,-1.085052204E1,4.309563041E-1,1.093920366E1
5.303315165E0,1.168370485E0,-1.067813969E1,2.873041928E-1,1.074571079E1
5.308350483E0,1.177947283E0,-1.049618053E1,3.830722719E-2,1.056214150E1
5.313385801E0,1.139639974E0,-1.026633644E1,-1.819593310E-1,1.033099958E1
5.318390602E0,1.043871999E0,-1.010353088E1,-4.022258818E-1,1.016527377E1
5.323425920E0,8.331822157E-1,-9.959878922E0,-6.512228847E-1,1.001586102E1
5.328461238E0,6.416460276E-1,-9.691728592E0,-7.852981687E-1,9.744639857E0
5.333496557E0,3.447650373E-1,-9.615114212E0,-8.523358107E-1,9.658973060E0
5.338501357E0,1.149216816E-1,-9.461885452E0,-9.193734527E-1,9.507141045E0
5.343536676E0,-4.788403213E-2,-9.394847870E0,-8.331822157E-1,9.431842449E0
5.348571993E0,-2.202665508E-1,-9.299078941E0,-8.140285611E-1,9.337238832E0
5.353576795E0,-4.022258818E-1,-9.308655739E0,-7.757213712E-1,9.349577582E0
5.358612112E0,-4.979939461E-1,-9.414001465E0,-7.757213712E-1,9.459025594E0
5.363647431E0,-5.075707436E-1,-9.528923035E0,-6.607996821E-1,9.565284025E0
5.368682749E0,-3.830722570E-1,-9.538499832E0,-5.363011956E-1,9.561241675E0
5.373687550E0,-1.628057212E-1,-9.643844604E0,-2.585737705E-1,9.648684100E0
5.378722867E0,2.011129409E-1,-9.720458984E0,1.915361360E-2,9.722558107E0
5.383758186E0,5.937620401E-1,-9.797073364E0,1.819593310E-1,9.816736172E0
5.388762987E0,8.810662031E-1,-9.797073364E0,3.926490843E-1,9.844445005E0
5.393798305E0,1.139639974E0,-9.883264542E0,6.033388376E-1,9.967031405E0
5.398833623E0,1.369483352E0,-9.892841339E0,8.810662031E-1,1.002596988E1
5.403868941E0,1.513135433E0,-9.864110947E0,1.034295082E0,1.003294722E1
5.408873742E0,1.628057122E0,-9.787496567E0,1.312022567E0,1.000834963E1
5.413909060E0,1.704671621E0,-9.854534149E0,1.513135433E0,1.011470847E1
5.418944378E0,1.934514999E0,-9.892841339E0,1.513135433E0,1.019314656E1
5.423979697E0,1.972822189E0,-9.835380554E0,1.580173135E0,1.015498327E1
5.428984497E0,2.116474390E0,-9.672574997E0,1.608903527E0,1.003128813E1
5.434019816E0,2.164358377E0,-9.586383820E0,1.503558636E0,9.942026478E0
5.439055133E0,2.279279947E0,-9.538499832E0,1.321599364E0,9.895692043E0
5.444059934E0,2.336740971E0,-9.346963882E0,1.244984865E0,9.714735174E0
5.449095252E0,2.394201756E0,-9.289502144E0,1.024718285E0,9.647647366E0
5.454130571E0,2.375048161E0,-9.241618156E0,9.193734527E-1,9.586115348E0
5.459165889E0,2.346317768E0,-9.327810287E0,6.991068721E-1,9.643754572E0
5.464170690E0,2.231395960E0,-9.433155060E0,5.171475410E-1,9.707264491E0
5.469206007E0,2.030282974E0,-9.548076630E0,4.788403511E-1,9.773285239E0
5.474241326E0,1.838746905E0,-9.672574997E0,5.363011956E-1,9.860391282E0
5.479276644E0,1.752555609E0,-9.892841339E0,6.512228847E-1,1.006796167E1
5.484281445E0,1.426944256E0,-9.959878922E0,8.906430602E-1,1.010092090E1
5.489316763E0,1.302445769E0,-1.001733971E1,1.110909581E0,1.016255774E1
5.494352081E0,1.082179189E0,-1.016099167E1,1.225831270E0,1.029172123E1
5.499387399E0,9.193734527E-1,-1.012268448E1,1.244984865E0,1.024031132E1
5.504392200E0,6.991068721E-1,-1.011310768E1,1.379060149E0,1.023061603E1
5.509427518E0,5.267243981E-1,-1.003649330E1,1.312022567E0,1.013558284E1
5.514462837E0,2.777273953E-1,-1.002691650E1,1.312022567E0,1.011620434E1
5.519467638E0,2.011129409E-1,-9.921571732E0,1.206677675E0,9.996704610E0
5.524502956E0,3.830722719E-2,-9.864110947E0,1.034295082E0,9.918261870E0
5.529538273E0,5.746084079E-2,-9.844957352E0,8.427590132E-1,9.881129984E0
5.534573592E0,7.661445439E-2,-9.816226959E0,6.033388376E-1,9.835049529E0
5.539578393E0,1.628057212E-1,-9.816226959E0,4.118026793E-1,9.826209791E0
5.544613711E0,2.968810201E-1,-9.730035782E0,3.639186621E-1,9.741363942E0
5.549649029E0,4.501099288E-1,-9.787496567E0,2.873041928E-1,9.802052422E0
5.554684347E0,4.979939461E-1,-9.787496567E0,2.585737705E-1,9.803568096E0
5.559689148E0,6.320692301E-1,-9.701305389E0,2.394201756E-1,9.724821838E0
5.564724466E0,7.374141216E-1,-9.892841339E0,4.022258818E-1,9.928437692E0
5.569759784E0,6.799532771E-1,-9.911994934E0,5.363011956E-1,9.949753716E0
5.574795102E0,7.278373241E-1,-1.005564690E1,5.841852427E-1,1.009886400E1
5.579799904E0,6.895300746E-1,-1.010353088E1,5.554547906E-1,1.014225409E1
5.584835221E0,5.937620401E-1,-1.009395409E1,6.033388376E-1,1.012938696E1
5.589870539E0,5.554547906E-1,-1.017056847E1,7.852981687E-1,1.021595253E1
5.594905858E0,4.884171486E-1,-1.023760605E1,6.512228847E-1,1.026991822E1
5.599910659E0,4.118026793E-1,-1.011310768E1,5.746083856E-1,1.013778591E1
5.604945977E0,4.692635238E-1,-9.998186111E0,4.596867263E-1,1.001974279E1
5.609981294E0,4.022258818E-1,-9.797073364E0,2.681505978E-1,9.808992655E0
5.615016613E0,4.405331016E-1,-9.691728592E0,8.619125932E-2,9.702118400E0
5.620021414E0,5.554547906E-1,-9.538499832E0,-9.576806799E-3,9.554663824E0
5.625056732E0,6.224924326E-1,-9.509769440E0,2.873042040E-2,9.530164587E0
5.630092050E0,6.607996821E-1,-9.509769440E0,1.053448766E-1,9.533282150E0
5.635127368E0,7.948749661E-1,-9.586383820E0,2.585737705E-1,9.622756432E0
5.640132169E0,8.906430602E-1,-9.643844604E0,4.501099288E-1,9.695338198E0
5.645167487E0,9.097966552E-1,-9.730035782E0,6.512228847E-1,9.794152210E0
5.650202805E0,8.619126081E-1,-9.864110947E0,9.385270476E-1,9.946075162E0
5.655238124E0,8.906430602E-1,-1.010353088E1,1.101332784E0,1.020232891E1
5.660242925E0,9.481038451E-1,-1.016099167E1,1.235408068E0,1.027963451E1
5.665278242E0,1.034295082E0,-1.017056847E1,1.244984865E0,1.029855410E1
5.670313560E0,1.177947283E0,-1.018972206E1,1.254561663E0,1.033401763E1
5.675348879E0,1.273715258E0,-1.006522369E1,1.158793569E0,1.021145832E1
5.680353679E0,1.350329757E0,-1.002691650E1,1.110909581E0,1.017823979E1
5.685388998E0,1.455674648E0,-9.921571732E0,8.810662031E-1,1.006642200E1
5.690424315E0,1.522712231E0,-9.864110947E0,8.331822157E-1,1.001566423E1
5.695459634E0,1.561019540E0,-9.797073364E0,6.416460276E-1,9.941385121E0
5.700464434E0,1.589749932E0,-9.710882187E0,5.363011956E-1,9.854752999E0
5.705499753E0,1.742978811E0,-9.749189377E0,3.351882398E-1,9.909440943E0
5.710535071E0,1.493981838E0,-9.528923035E0,2.011129409E-1,9.647424649E0
5.715570389E0,1.398213744E0,-9.528923035E0,5.746084079E-2,9.631130651E0
5.720575190E0,1.455674648E0,-9.710882187E0,-2.777273953E-1,9.823306675E0
5.725610508E0,1.474828243E0,-9.844957352E0,-3.639186621E-1,9.961462764E0
5.730645826E0,1.312022567E0,-1.001733971E1,-3.639186621E-1,1.010944780E1
5.735681145E0,9.959878922E-1,-1.001733971E1,-3.926490843E-1,1.007438633E1
5.740685945E0,6.129156351E-1,-9.864110947E0,-5.363011956E-1,9.897674945E0
5.745721263E0,3.447650373E-1,-9.768342972E0,-8.044517636E-1,9.807473170E0
5.750756581E0,3.639186621E-1,-9.730035782E0,-9.002198577E-1,9.778365349E0
5.755791900E0,4.501099288E-1,-9.701305389E0,-9.959878922E-1,9.762679811E0
5.760796700E0,4.405331016E-1,-9.835380554E0,-9.481038451E-1,9.890787682E0
5.765832019E0,4.405331016E-1,-1.007480049E1,-9.768342972E-1,1.013162769E1
5.770867336E0,4.884171486E-1,-1.032379818E1,-9.193734527E-1,1.037615573E1
5.775902655E0,5.937620401E-1,-1.075475407E1,-9.864110947E-1,1.081620521E1
5.780907455E0,6.895300746E-1,-1.111867237E1,-9.385270476E-1,1.117949731E1
5.785942774E0,8.331822157E-1,-1.157835960E1,-9.002198577E-1,1.164315247E1
5.790978092E0,1.024718285E0,-1.202846909E1,-9.672574997E-1,1.211072678E1
5.795982893E0,1.331176162E0,-1.246900272E1,-9.289502501E-1,1.257421995E1
5.801018211E0,1.580173135E0,-1.283292103E1,-9.193734527E-1,1.296248652E1
5.806053529E0,1.934514999E0,-1.320641613E1,-8.044517636E-1,1.337157126E1
5.811088847E0,2.432508945E0,-1.346499062E1,-6.033388376E-1,1.369624364E1
5.816093648E0,3.045424461E0,-1.380975533E1,-2.585737705E-1,1.414393201E1
5.821128966E0,3.639186621E0,-1.386721611E1,3.734954596E-1,1.434164777E1
5.826164285E0,4.319139957E0,-1.397256088E1,9.959878922E-1,1.465876596E1
5.831199602E0,4.817133904E0,-1.391510010E1,1.695094824E0,1.482255498E1
5.836204403E0,5.094861031E0,-1.361821938E1,2.106897593E0,1.469192041E1
5.841239721E0,5.372588634E0,-1.310107136E1,2.288856745E0,1.434369703E1
5.846275040E0,5.468356609E0,-1.239238834E1,2.164358377E0,1.371709372E1
5.851310358E0,5.497087002E0,-1.157835960E1,1.695094824E0,1.292863965E1
5.856315159E0,5.401319027E0,-1.102290440E1,1.244984865E0,1.233809774E1
5.861350476E0,5.209783077E0,-1.023760605E1,4.692635238E-1,1.149654842E1
5.866385795E0,4.989516258E0,-9.404424667E0,-2.298433632E-1,1.064853529E1
5.871421113E0,4.616020679E0,-8.781931877E0,-8.810662031E-1,9.960233535E0
5.876425914E0,4.079719543E0,-8.312667847E0,-1.216254473E0,9.339370066E0
5.881461232E0,3.629609823E0,-7.939172745E0,-1.235408068E0,8.816505228E0
5.886496550E0,3.064578056E0,-7.843404770E0,-9.672574997E-1,8.476215200E0
5.891531868E0,2.604891539E0,-7.833827972E0,-6.320692301E-1,8.279724159E0
5.896567187E0,1.991975784E0,-8.034940720E0,-3.447650373E-1,8.285354719E0
5.901571987E0,1.264138460E0,-8.283937454E0,6.703764945E-2,8.380105002E0
5.906607306E0,5.554547906E-1,-8.724471092E0,4.596867263E-1,8.754212572E0
5.911642623E0,-4.788403213E-2,-9.289502144E0,9.002198577E-1,9.333141955E0
5.916677941E0,-6.224924326E-1,-9.710882187E0,1.244984865E0,9.810133383E0
5.921682742E0,-1.120486379E0,-1.024718285E1,1.493981838E0,1.041596024E1
5.926718061E0,-1.331176162E0,-1.071644688E1,1.896207690E0,1.096402605E1
5.931753379E0,-1.561019540E0,-1.107078838E1,2.145204782E0,1.138424530E1
5.936788696E0,-1.742978811E0,-1.132936287E1,2.365471363E0,1.170418271E1
5.941793497E0,-1.896207690E0,-1.153047562E1,2.537853718E0,1.195776622E1
5.946828816E0,-2.001552582E0,-1.179862595E1,2.547430515E0,1.223532546E1
5.951864134E0,-2.059013367E0,-1.199016190E1,2.442085743E0,1.240835610E1
5.956899452E0,-2.078166962E0,-1.217212105E1,2.183511972E0,1.253981791E1
5.961904253E0,-2.020706177E0,-1.230619717E1,1.867477298E0,1.261004416E1
5.966939571E0,-1.857900500E0,-1.237323475E1,1.417367458E0,1.259196819E1
5.971974889E0,-1.589749932E0,-1.252646351E1,8.810662031E-1,1.265764080E1
5.977010207E0,-1.216254473E0,-1.249773312E1,3.256114423E-1,1.256099641E1
5.982015008E0,-7.565677166E-1,-1.242111874E1,-1.149216816E-1,1.244466923E1
5.987050327E0,-2.585737705E-1,-1.237323475E1,-4.501099288E-1,1.238411876E1
5.992085644E0,2.106897533E-1,-1.228704357E1,-5.746083856E-1,1.230227640E1
5.997120962E0,4.692635238E-1,-1.212423706E1,-5.937620401E-1,1.214783462E1
6.002125763E0,6.512228847E-1,-1.190397072E1,-5.554547906E-1,1.193470319E1
6.007161082E0,6.512228847E-1,-1.169328117E1,-3.830722570E-1,1.171766445E1
6.012196400E0,6.895300746E-1,-1.153047562E1,-3.926490843E-1,1.155774602E1
6.017201201E0,6.416460276E-1,-1.135809326E1,-2.298433632E-1,1.137852451E1
6.022236519E0,6.416460276E-1,-1.123359394E1,-3.447650373E-1,1.125718461E1
6.027271837E0,5.746083856E-1,-1.108036518E1,-2.777273953E-1,1.109872965E1
6.032307155E0,5.363011956E-1,-1.108036518E1,-3.351882398E-1,1.109839910E1
6.037311956E0,5.075707436E-1,-1.101332760E1,-3.639186621E-1,1.103102215E1
6.042347274E0,4.884171486E-1,-1.095586681E1,-4.692635238E-1,1.097678355E1
6.047382592E0,5.937620401E-1,-1.087925243E1,-6.320692301E-1,1.091376188E1
6.052417910E0,7.278373241E-1,-1.093671322E1,-8.140285611E-1,1.099109120E1
6.057422711E0,8.331822157E-1,-1.091755962E1,-9.672574997E-1,1.099194650E1
6.062458029E0,9.768342972E-1,-1.088882923E1,-1.120486379E0,1.098982698E1
6.067493348E0,8.523358107E-1,-1.097502041E1,-1.206677675E0,1.107400652E1
6.072528665E0,8.140285611E-1,-1.105163479E1,-1.091755986E0,1.113522362E1
6.077533467E0,8.427590132E-1,-1.101332760E1,-1.120486379E0,1.110221227E1
6.082568784E0,7.374141216E-1,-1.090798283E1,-9.481038451E-1,1.097391315E1
6.087604103E0,6.895300746E-1,-1.085052204E1,-9.002198577E-1,1.090961393E1
6.092639421E0,7.182605267E-1,-1.083136845E1,-6.991068721E-1,1.087764639E1
6.097644222E0,7.948749661E-1,-1.059194851E1,-7.086837292E-1,1.064534791E1
6.102679540E0,9.289502501E-1,-1.042914295E1,-6.703764796E-1,1.049187190E1
6.107714858E0,1.015141487E0,-1.034295177E1,-7.757213712E-1,1.042155973E1
6.112750176E0,1.063025594E0,-1.025675964E1,-6.799532771E-1,1.033409301E1
6.117754977E0,1.130063176E0,-1.005564690E1,-7.374141216E-1,1.014578025E1
6.122790295E0,1.091755986E0,-9.998186111E0,-6.703764796E-1,1.007993359E1
6.127825614E0,1.063025594E0,-9.816226959E0,-5.746083856E-1,9.890324056E0
6.132860931E0,1.216254473E0,-9.691728592E0,-6.512228847E-1,9.789431510E0
6.137865732E0,1.139639974E0,-9.433155060E0,-3.926490843E-1,9.509856306E0
6.142901050E0,1.005564690E0,-9.356540680E0,-7.661445439E-2,9.410732363E0
6.147936369E0,9.002198577E-1,-9.241618156E0,1.244984865E-1,9.286194151E0
6.152941169E0,8.906430602E-1,-9.155426979E0,2.106897533E-1,9.201058548E0
6.157976488E0,7.852981687E-1,-9.069235802E0,2.106897533E-1,9.105609338E0
6.163011805E0,8.044517636E-1,-9.050082207E0,1.053448766E-1,9.086375962E0
6.168047124E0,8.619126081E-1,-8.983044624E0,-6.703764945E-2,9.024548638E0
6.173051924E0,5.363011956E-1,-8.963891029E0,4.884171486E-1,8.993192574E0
6.178087243E0,4.309563041E-1,-8.963891029E0,4.596867263E-1,8.986010105E0
6.183122561E0,5.458779931E-1,-8.906430244E0,2.777273953E-1,8.927464085E0
6.188127362E0,4.405331016E-1,-8.781931877E0,-1.915361360E-2,8.792995153E0
6.193162680E0,4.692635238E-1,-8.762778282E0,-1.532289088E-1,8.776671953E0
6.198197998E0,5.171475410E-1,-8.734047890E0,-1.819593310E-1,8.751236674E0
6.203233316E0,4.692635238E-1,-8.781931877E0,-1.340752989E-1,8.795482473E0
6.208238117E0,3.830722570E-1,-8.858546257E0,-1.244984865E-1,8.867699026E0
6.213273435E0,5.746083856E-1,-8.858546257E0,-3.830722570E-1,8.885424072E0
6.218308754E0,4.118026793E-1,-8.983044624E0,-5.650315881E-1,9.010212698E0
6.223344071E0,3.543418646E-1,-9.136273384E0,-9.385270476E-1,9.191185045E0
6.228348872E0,2.394201756E-1,-9.375694275E0,-1.149216771E0,9.448897520E0
6.233384190E0,3.064578176E-1,-9.423578262E0,-1.503558636E0,9.547692508E0
6.238419509E0,2.873041928E-1,-9.433155060E0,-1.465251446E0,9.550597881E0
6.243424309E0,3.734954596E-1,-9.318233490E0,-1.771709204E0,9.492519567E0
6.248459628E0,3.064578176E-1,-9.308655739E0,-1.972822189E0,9.520347444E0
6.253494945E0,2.777273953E-1,-9.251194954E0,-1.934514999E0,9.455373544E0
6.258530264E0,3.160346150E-1,-9.107542992E0,-1.991975784E0,9.328193005E0
6.263535064E0,3.256114423E-1,-8.877699852E0,-1.934514999E0,9.091860412E0
6.268570383E0,5.267243981E-1,-8.580819130E0,-1.886630893E0,8.801549390E0
6.273605701E0,8.427590132E-1,-8.207323074E0,-1.886630893E0,8.463437300E0
6.278610502E0,1.034295082E0,-7.939172745E0,-1.781286120E0,8.202024776E0
6.283645820E0,1.110909581E0,-7.920019150E0,-1.628057122E0,8.161580326E0
6.288681138E0,1.082179189E0,-7.987056732E0,-1.522712231E0,8.202611753E0
6.293716456E0,1.005564690E0,-7.996633530E0,-1.503558636E0,8.198658227E0
6.298721257E0,9.385270476E-1,-8.121131897E0,-1.532289028E0,8.317543265E0
6.303756575E0,1.053448796E0,-8.092401505E0,-1.637633920E0,8.323374396E0
6.308791893E0,1.101332784E0,-8.092401505E0,-1.675941229E0,8.337186277E0
6.313796695E0,1.350329757E0,-7.987056732E0,-1.714248419E0,8.279801528E0
6.318832012E0,1.532289028E0,-7.948749542E0,-1.685518026E0,8.268706064E0
6.323867330E0,1.522712231E0,-7.872135162E0,-1.647210717E0,8.185503509E0
6.328902649E0,1.666364431E0,-7.977479935E0,-1.398213744E0,8.268733773E0
6.333907450E0,1.838746905E0,-7.814674377E0,-1.149216771E0,8.109921393E0
6.338942768E0,1.857900500E0,-7.766790390E0,-9.864110947E-1,8.046603885E0
6.343978085E0,1.838746905E0,-7.651868820E0,-8.523358107E-1,7.915716200E0
6.348982887E0,1.810016513E0,-7.517793179E0,-8.236053586E-1,7.776355177E0
6.354018205E0,1.675941229E0,-7.460332394E0,-9.002198577E-1,7.699073595E0
6.359053523E0,1.656787634E0,-7.364564419E0,-9.481038451E-1,7.607933704E0
6.364088841E0,1.685518026E0,-7.259219646E0,-1.158793569E0,7.541885933E0
6.369093642E0,1.877054095E0,-7.125144482E0,-1.273715258E0,7.477524090E0
6.374128960E0,1.838746905E0,-7.077260017E0,-1.235408068E0,7.415850095E0
6.379164278E0,1.848323703E0,-7.134721279E0,-1.312022567E0,7.486117248E0
6.384169079E0,1.877054095E0,-7.058106422E0,-1.235408068E0,7.407187823E0
6.389204397E0,2.011129379E0,-7.048529625E0,-1.321599364E0,7.448022297E0
6.394239716E0,2.126051188E0,-7.134721279E0,-1.551442742E0,7.604690393E0
6.399244516E0,2.308010340E0,-7.201758862E0,-1.685518026E0,7.748110314E0
6.404279835E0,2.346317768E0,-7.479485989E0,-1.953668594E0,8.078659462E0
6.409315152E0,2.451662540E0,-7.766790390E0,-2.298433542E0,8.462652003E0
6.414350471E0,2.499546528E0,-7.987056732E0,-2.786850691E0,8.820847174E0
6.419355271E0,2.738966703E0,-8.226476669E0,-3.256114244E0,9.261702703E0
6.424390590E0,2.853888512E0,-8.446743965E0,-3.600879431E0,9.615534095E0
6.429425908E0,2.959233284E0,-8.638279915E0,-3.945644379E0,9.947112701E0
6.434430709E0,2.949656487E0,-8.877699852E0,-4.213795185E0,1.026012173E1
6.439466026E0,3.055001259E0,-9.069235802E0,-4.491522312E0,1.057155823E1
6.444501345E0,2.920926094E0,-9.279925346E0,-4.568136692E0,1.074786939E1
6.449506146E0,3.035847664E0,-9.308655739E0,-4.702212334E0,1.086177902E1
6.454541464E0,3.083731890E0,-9.318233490E0,-4.654327869E0,1.086285624E1
6.459576782E0,3.141192675E0,-9.327810287E0,-4.654327869E0,1.088751138E1
6.464612100E0,3.256114244E0,-9.289502144E0,-4.692635536E0,1.090495109E1
6.469616902E0,3.284844637E0,-9.337387085E0,-4.472368717E0,1.086181770E1
6.474652219E0,3.227383852E0,-9.241618156E0,-4.242525578E0,1.066876450E1
6.479687537E0,3.198653460E0,-9.289502144E0,-4.089296341E0,1.064183154E1
6.484692338E0,3.160346270E0,-9.308655739E0,-3.926490784E0,1.058565964E1
6.489727657E0,3.217807055E0,-9.327810287E0,-3.821146011E0,1.058127988E1
6.494762975E0,3.303998232E0,-9.366117477E0,-3.658340216E0,1.058413974E1
6.499798292E0,3.533841610E0,-9.442731857E0,-3.505111217E0,1.067422251E1
6.504803093E0,3.629609823E0,-9.557653427E0,-3.466804028E0,1.079544055E1
6.509838412E0,3.667917013E0,-9.586383820E0,-3.457227230E0,1.083073359E1
6.514873730E0,3.725377798E0,-9.624691010E0,-3.830722809E0,1.100852188E1
6.519878531E0,3.648763418E0,-9.787496567E0,-4.453215122E0,1.135516131E1
6.524913849E0,3.495534420E0,-1.000776291E1,-5.171475887E0,1.179483964E1
6.529949166E0,3.198653460E0,-1.045787334E1,-5.928043365E0,1.243946128E1
6.534953968E0,2.853888512E0,-1.091755962E1,-6.722918510E0,1.313527392E1
6.539989286E0,2.729389906E0,-1.139640045E1,-7.163451672E0,1.373472069E1
6.545024604E0,2.710236311E0,-1.191354752E1,-7.383718014E0,1.427575872E1
6.550059922E0,2.806004286E0,-1.205719948E1,-7.230489254E0,1.433630685E1
6.555064723E0,2.997540474E0,-1.238281155E1,-6.770802498E0,1.442785629E1
6.560100042E0,2.949656487E0,-1.253604031E1,-6.550535679E0,1.444860885E1
6.565135359E0,3.007117271E0,-1.298614979E1,-6.177040577E0,1.469144890E1
6.570170677E0,3.035847664E0,-1.354160500E1,-5.870582581E0,1.506835017E1
6.575175478E0,3.093308687E0,-1.434605694E1,-5.822698593E0,1.578865818E1
6.580210797E0,3.217807055E0,-1.521754646E1,-6.387730122E0,1.681460968E1
6.585246115E0,3.399766445E0,-1.614649582E1,-6.914454460E0,1.789070763E1
6.590250916E0,3.572149038E0,-1.699883270E1,-7.814674377E0,1.904703908E1
6.595286233E0,4.108449936E0,-1.749682617E1,-7.278373241E0,1.939053903E1
6.600321552E0,4.673481941E0,-1.760217094E1,-5.621585369E0,1.905990759E1
6.605356870E0,4.769249916E0,-1.719994545E1,-2.652775526E0,1.804497399E1
6.610361671E0,5.056553841E0,-1.655829811E1,1.053448766E-1,1.731349389E1
6.615396989E0,5.276820660E0,-1.545696640E1,2.528276920E0,1.652739637E1
6.620432307E0,5.305551052E0,-1.410663605E1,3.754108191E0,1.553188272E1
6.625437108E0,4.979939461E0,-1.234450436E1,3.955221176E0,1.388633715E1
6.630472426E0,3.974374771E0,-1.038125896E1,3.371036053E0,1.161594062E1
6.635507744E0,2.020706177E0,-8.532935143E0,2.585737944E0,9.142224910E0
6.640543063E0,-2.873041928E-1,-7.010222435E0,2.030282974E0,7.303958601E0
6.645547863E0,-2.020706177E0,-5.755661011E0,2.020706177E0,6.426051710E0
6.650583182E0,-3.227383852E0,-4.817133904E0,2.068590164E0,6.156285474E0
6.655618499E0,-4.156333923E0,-3.811569214E0,2.173935175E0,6.043936275E0
6.660623300E0,-4.568136692E0,-3.074155092E0,2.039859772E0,5.871910273E0
6.665658618E0,-4.845864296E0,-2.384624958E0,1.800439715E0,5.693015030E0
6.670693937E0,-4.865017891E0,-1.953668594E0,1.417367458E0,5.430851735E0
6.675729254E0,-4.903325081E0,-2.221819162E0,1.264138460E0,5.529658514E0
6.680734056E0,-5.372588634E0,-3.246537447E0,1.656787634E0,6.492276896E0
6.685769373E0,-6.023811340E0,-4.596867085E0,2.317587137E0,7.923932117E0
6.690804692E0,-6.445190907E0,-6.110002518E0,2.873042107E0,9.334183817E0
6.695809493E0,-6.349422932E0,-7.642292023E0,3.169923067E0,1.042919993E1
6.700844811E0,-5.880159378E0,-9.069235802E0,3.093308687E0,1.124259183E1
6.705880129E0,-4.884171486E0,-1.058237171E1,2.968810081E0,1.202728379E1
6.710915447E0,-4.108449936E0,-1.170285797E1,2.796427488E0,1.271441120E1
6.715920249E0,-3.026270866E0,-1.255519390E1,2.595314741E0,1.317295972E1
6.720955566E0,-2.336740971E0,-1.323514652E1,2.279279947E0,1.363174893E1
6.725990884E0,-1.197100878E0,-1.366610336E1,1.618480325E0,1.381357702E1
6.730995685E0,-2.202665508E-1,-1.392467690E1,1.082179189E0,1.396840205E1
6.736031004E0,6.416460276E-1,-1.378102493E1,5.267243981E-1,1.380600581E1
6.741066321E0,1.570596337E0,-1.347456741E1,-1.053448766E-1,1.356620202E1
6.746101639E0,2.250549555E0,-1.286165142E1,-8.619126081E-1,1.308548600E1
6.751106440E0,2.719813108E0,-1.238281155E1,-1.666364431E0,1.278703154E1
6.756141759E0,3.438073635E0,-1.166455078E1,-2.011129379E0,1.232585643E1
6.761177077E0,3.983951569E0,-1.107078838E1,-2.394201756E0,1.200693248E1
6.766181878E0,4.127603531E0,-1.045787334E1,-2.489969730E0,1.151538862E1
6.771217196E0,4.204218388E0,-1.004607010E1,-2.403778553E0,1.115244942E1
6.776252514E0,4.012681961E0,-9.854534149E0,-2.212242365E0,1.086772635E1
6.781287832E0,3.821146011E0,-9.567230225E0,-1.637633920E0,1.043143786E1
6.786292633E0,3.648763418E0,-9.471462250E0,-1.120486379E0,1.021163852E1
6.791327951E0,3.418920040E0,-9.404424667E0,-6.416460276E-1,1.002715948E1
6.796363270E0,3.284844637E0,-9.289502144E0,-3.734954596E-1,9.860251175E0
6.801398587E0,3.150769472E0,-9.279925346E0,-4.788403213E-2,9.800339565E0
6.806403388E0,3.265691042E0,-9.069235802E0,2.585737705E-1,9.642750458E0
6.811438706E0,3.342305660E0,-8.983044624E0,6.033388376E-1,9.603651160E0
6.816474025E0,3.485957623E0,-8.848969460E0,8.140285611E-1,9.545616981E0
6.821478825E0,3.466804028E0,-8.791508675E0,1.072602391E0,9.511037316E0
6.826514144E0,3.524264812E0,-8.714894295E0,1.130063176E0,9.468202988E0
6.831549461E0,3.629609823E0,-8.762778282E0,9.385270476E-1,9.531064144E0
6.836584779E0,3.667917013E0,-8.810662270E0,7.278373241E-1,9.571370436E0
6.841589580E0,3.830722809E0,-8.801085472E0,6.799532771E-1,9.622675261E0
6.846624899E0,3.821146011E0,-8.705317497E0,5.554547906E-1,9.523247324E0
6.851660217E0,3.696647406E0,-8.580819130E0,3.351882398E-1,9.349225109E0
6.856665018E0,3.485957623E0,-8.753201485E0,1.340752989E-1,9.422760369E0
6.861700336E0,3.179499865E0,-8.906430244E0,-1.915361360E-2,9.456959657E0
6.866735654E0,2.825158119E0,-9.126696587E0,-1.340752989E-1,9.554898491E0
6.871770972E0,2.394201756E0,-9.308655739E0,-1.915361285E-1,9.613530038E0
6.876775773E0,1.886630893E0,-9.691728592E0,-3.064578176E-1,9.878405520E0
6.881811091E0,1.589749932E0,-9.892841339E0,-4.692635238E-1,1.003074388E1
6.886846410E0,1.273715258E0,-1.003649330E1,-4.979939461E-1,1.012924214E1
6.891881727E0,9.097966552E-1,-1.020887566E1,-7.757213712E-1,1.027864854E1
6.896886528E0,7.086837292E-1,-1.040998936E1,-9.481038451E-1,1.047707077E1
6.901921846E0,5.363011956E-1,-1.032379818E1,-9.864110947E-1,1.038467307E1
6.906957165E0,6.224924326E-1,-1.017056847E1,-1.168370485E0,1.025636628E1
6.911992482E0,6.991068721E-1,-1.006522369E1,-1.024718285E0,1.014137693E1
6.916997284E0,7.661445141E-1,-9.892841339E0,-1.053448796E0,9.978228377E0
6.922032601E0,8.906430602E-1,-9.730035782E0,-8.810662031E-1,9.810357742E0
6.927054041E0,1.015141487E0,-9.433155060E0,-4.979939461E-1,9.500680217E0
6.932058840E0,1.158793569E0,-9.385271072E0,-2.011129409E-1,9.458676549E0
6.937094158E0,1.206677675E0,-9.318233490E0,2.106897533E-1,9.398400745E0
6.942129474E0,1.120486379E0,-9.327810287E0,3.351882398E-1,9.400844943E0
6.947134274E0,1.063025594E0,-9.327810287E0,5.841852427E-1,9.406345761E0
6.952169590E0,1.015141487E0,-9.452308655E0,7.374141216E-1,9.535220539E0
6.957204908E0,9.768342972E-1,-9.519346237E0,7.565677166E-1,9.599195421E0
6.962240224E0,9.385270476E-1,-9.548076630E0,8.236053586E-1,9.629378284E0
6.967245024E0,1.005564690E0,-9.672574997E0,7.374141216E-1,9.752622571E0
6.972280341E0,9.864110947E-1,-9.720458984E0,7.757213712E-1,9.801126127E0
6.977315658E0,1.072602391E0,-9.672574997E0,7.948749661E-1,9.764272076E0
6.982320458E0,1.177947283E0,-9.624691010E0,8.810662031E-1,9.736452870E0
6.987355774E0,1.158793569E0,-9.595960617E0,1.091755986E0,9.727136980E0
6.992391091E0,1.168370485E0,-9.576807022E0,1.130063176E0,9.713771930E0
6.997426408E0,1.168370485E0,-9.691728592E0,1.091755986E0,9.822760499E0
7.002431208E0,1.139639974E0,-9.749189377E0,1.110909581E0,9.878238349E0
7.007466525E0,1.130063176E0,-9.777919769E0,1.015141487E0,9.895214502E0
7.012501841E0,1.235408068E0,-9.806650162E0,7.661445141E-1,9.913808446E0
7.017506641E0,1.225831270E0,-9.902418137E0,5.267243981E-1,9.991896009E0
7.022541958E0,1.407790542E0,-9.959878922E0,3.064578176E-1,1.006354703E1
7.027577275E0,1.522712231E0,-9.940725327E0,5.746084079E-2,1.005683719E1
7.032612591E0,1.752555609E0,-9.921571732E0,-1.244984865E-1,1.007593850E1
7.037617391E0,1.905784607E0,-9.873687744E0,-2.298433632E-1,1.005855619E1
7.042652709E0,2.097320795E0,-9.892841339E0,-2.489969730E-1,1.011578290E1
7.047688025E0,2.193088770E0,-9.797073364E0,-2.968810201E-1,1.004392469E1
7.052723341E0,2.298433542E0,-9.720458984E0,-3.064578176E-1,9.993199488E0
7.057728141E0,2.288856745E0,-9.701305389E0,-3.639186621E-1,9.974298384E0
7.062763459E0,2.384624958E0,-9.634267807E0,-3.830722570E-1,9.932386255E0
7.067798775E0,2.336740971E0,-9.701305389E0,-3.543418646E-1,9.985050965E0
7.072834092E0,2.308010340E0,-9.854534149E0,-2.873041928E-1,1.012528018E1
7.077838892E0,2.173935175E0,-9.950302124E0,-1.915361285E-1,1.018681464E1
7.082874209E0,2.001552582E0,-1.006522369E1,-1.149216816E-1,1.026295025E1
7.087909525E0,1.829170108E0,-1.012268448E1,-8.619125932E-2,1.028698368E1
7.092914325E0,1.810016513E0,-1.017056847E1,-1.436520964E-1,1.033137254E1
7.097949642E0,1.666364431E0,-9.959878922E0,-2.681505978E-1,1.010187425E1
7.102984959E0,1.570596337E0,-9.825803757E0,-4.788403511E-1,9.962052018E0
7.108020276E0,1.599326730E0,-9.730035782E0,-5.363011956E-1,9.875173987E0
7.113025075E0,1.608903527E0,-9.548076630E0,-2.873041928E-1,9.686943872E0
7.118060392E0,1.570596337E0,-9.375694275E0,-2.202665508E-1,9.508887072E0
7.123095709E0,1.532289028E0,-9.241618156E0,2.873042040E-2,9.367830125E0
7.128100508E0,1.513135433E0,-9.222464561E0,4.501099288E-1,9.356603570E0
7.133135826E0,1.541865945E0,-9.193734169E0,7.182605267E-1,9.349759181E0
7.138171142E0,1.570596337E0,-9.078812599E0,8.906430602E-1,9.256611482E0
7.143206459E0,1.599326730E0,-9.059659004E0,1.110909581E0,9.266573658E0
7.148211258E0,1.675941229E0,-9.059659004E0,1.101332784E0,9.278961913E0
7.153246576E0,1.771709204E0,-9.078812599E0,1.082179189E0,9.313157548E0
7.158281892E0,1.704671621E0,-9.040505409E0,1.110909581E0,9.266647910E0
7.163286692E0,1.704671621E0,-9.059659004E0,1.168370485E0,9.292384850E0
7.168322009E0,1.781286120E0,-9.136273384E0,9.385270476E-1,9.355495958E0
7.173357326E0,1.733402014E0,-9.145850182E0,7.086837292E-1,9.335603393E0
7.178392643E0,1.656787634E0,-9.270348549E0,5.363011956E-1,9.432493120E0
7.183397442E0,1.522712231E0,-9.442731857E0,1.436520964E-1,9.565797060E0
7.188432759E0,1.359906554E0,-9.519346237E0,-8.619125932E-2,9.616378089E0
7.193468076E0,1.072602391E0,-9.576807022E0,-2.873041928E-1,9.640967396E0
7.198503393E0,8.714894056E-1,-9.634267807E0,-6.799532771E-1,9.697471135E0
7.203508193E0,7.182605267E-1,-9.548076630E0,-6.416460276E-1,9.596529328E0
7.208543509E0,5.746083856E-1,-9.576807022E0,-5.267243981E-1,9.608477826E0
7.213578826E0,5.171475410E-1,-9.682151794E0,-3.830722570E-1,9.703517368E0
7.218583625E0,5.554547906E-1,-9.682151794E0,-6.703764945E-2,9.698303328E0
7.223618943E0,6.416460276E-1,-9.825803757E0,3.543418646E-1,9.853105462E0
7.228654259E0,8.140285611E-1,-1.005564690E1,7.278373241E-1,1.011476268E1
7.233689577E0,8.331822157E-1,-1.021845245E1,1.082179189E0,1.030931981E1
7.238694376E0,9.002198577E-1,-1.050575733E1,1.388636947E0,1.063530185E1
7.243729693E0,9.576807022E-1,-1.074517727E1,1.561019540E0,1.090012701E1
7.248765009E0,9.002198577E-1,-1.094629002E1,1.484405041E0,1.108310061E1
7.253800327E0,8.523358107E-1,-1.100375080E1,1.264138460E0,1.110887276E1
7.258805126E0,8.523358107E-1,-1.102290440E1,9.002198577E-1,1.109239800E1
7.263840443E0,7.852981687E-1,-1.083136845E1,4.692635238E-1,1.086993302E1
7.268875760E0,8.523358107E-1,-1.071644688E1,5.746084079E-2,1.075044240E1
7.273911077E0,7.182605267E-1,-1.053448772E1,-5.171475410E-1,1.057160212E1
7.278915876E0,6.320692301E-1,-1.031422138E1,-1.101332784E0,1.039209354E1
7.283951193E0,5.075707436E-1,-1.019929886E1,-1.417367458E0,1.030981357E1
7.288986510E0,4.309563041E-1,-1.012268448E1,-1.637633920E0,1.026334786E1
7.294021827E0,3.830722570E-1,-1.009395409E1,-1.723825216E0,1.024725460E1
7.299026626E0,2.681505978E-1,-1.011310768E1,-1.733402014E0,1.026408955E1
7.304061944E0,2.202665508E-1,-1.017056847E1,-1.599326730E0,1.029790397E1
7.309097260E0,1.915361285E-1,-1.028549004E1,-1.589749932E0,1.040938501E1
7.314132577E0,2.489969730E-1,-1.038125896E1,-1.350329757E0,1.047167263E1
7.319137376E0,3.734954596E-1,-1.040998936E1,-1.225831270E0,1.048856709E1
7.324172694E0,4.884171486E-1,-1.062067890E1,-1.216254473E0,1.070124510E1
7.329208010E0,6.895300746E-1,-1.067813969E1,-1.264138460E0,1.077479303E1
7.334243328E0,9.481038451E-1,-1.075475407E1,-1.283292055E0,1.087246405E1
7.339248127E0,1.264138460E0,-1.069729328E1,-1.292868972E0,1.084903866E1
7.344283444E0,1.561019540E0,-1.063025570E1,-1.436521053E0,1.083986674E1
7.349318760E0,1.877054095E0,-1.066856289E1,-1.532289028E0,1.094026855E1
7.354354078E0,2.269703150E0,-1.061110210E1,-1.666364431E0,1.097833369E1
7.359358877E0,2.719813108E0,-1.068771648E1,-1.819593310E0,1.117745887E1
7.364394194E0,3.112462282E0,-1.079306126E1,-1.972822189E0,1.140480689E1
7.369429511E0,3.418920040E0,-1.103248119E1,-1.896207690E0,1.170471098E1
7.374464828E0,3.830722809E0,-1.126232433E1,-1.618480325E0,1.200557642E1
7.379469627E0,4.050989151E0,-1.161666679E1,-1.340752959E0,1.237558399E1
7.384504944E0,4.338293552E0,-1.196143150E1,-1.197100878E0,1.278005028E1
7.389540261E0,4.635174274E0,-1.233492756E1,-9.959878922E-1,1.321466119E1
7.394545061E0,4.740519524E0,-1.254561710E1,-8.906430602E-1,1.344091808E1
7.399580377E0,4.730942726E0,-1.268926907E1,-9.672574997E-1,1.357700098E1
7.404615695E0,4.548983097E0,-1.272757626E1,-1.139639974E0,1.356404157E1
7.409651011E0,4.319139957E0,-1.248815632E1,-1.493981838E0,1.329815777E1
7.414655811E0,4.041412354E0,-1.222958183E1,-1.953668594E0,1.302737528E1
7.419691127E0,3.773261786E0,-1.193270111E1,-2.068590164E0,1.268486995E1
7.424726445E0,3.725377798E0,-1.166455078E1,-1.886630893E0,1.238949397E1
7.429761761E0,3.715801001E0,-1.139640045E1,-1.436521053E0,1.207264317E1
7.434766561E0,3.725377798E0,-1.124317074E1,-4.788403511E-1,1.185397048E1
7.439801878E0,3.658340216E0,-1.118570995E1,5.458779931E-1,1.178140667E1
7.444837195E0,3.505111217E0,-1.131020927E1,1.666364431E0,1.195756701E1
7.449872511E0,3.524264812E0,-1.118570995E1,2.269703150E0,1.194537994E1
7.454907828E0,3.667917013E0,-1.122401714E1,2.576161146E0,1.208589187E1
7.459912628E0,3.830722809E0,-1.117613316E1,2.451662540E0,1.206611117E1
7.464947945E0,3.782838583E0,-1.102290440E1,2.978386879E0,1.202851102E1
7.469983262E0,3.926490784E0,-1.066856289E1,2.940079689E0,1.174221583E1
7.475018578E0,3.964797974E0,-1.054406452E1,3.265691042E0,1.172866819E1
7.480023378E0,3.811569214E0,-1.030464458E1,3.533841610E0,1.154130826E1
7.485058695E0,3.888183594E0,-9.950302124E0,3.648763418E0,1.128893080E1
7.490094012E0,3.533841610E0,-9.672574997E0,3.926490784E0,1.102107406E1
7.495129328E0,3.294421434E0,-9.337387085E0,3.907337189E0,1.064458990E1
7.500134128E0,3.284844637E0,-9.030928612E0,3.399766445E0,1.019344337E1
7.505169446E0,2.882618904E0,-9.030928612E0,3.246537447E0,1.002033776E1
7.510204762E0,2.738966703E0,-9.050082207E0,2.786850691E0,9.857609412E0
7.515240078E0,2.480392933E0,-9.136273384E0,2.317587137E0,9.746540442E0
7.520244878E0,2.087743998E0,-9.615114212E0,1.838746905E0,1.000949981E1
7.525280196E0,1.637633920E0,-1.006522369E1,1.905784607E0,1.037413070E1
7.530315512E0,1.177947283E0,-1.060152531E1,1.944091797E0,1.084248088E1
7.535350829E0,5.650315881E-1,-1.108036518E1,1.953668594E0,1.126545934E1
7.540355629E0,-6.703764945E-2,-1.164539719E1,1.762132406E0,1.177815267E1
7.545390946E0,-6.416460276E-1,-1.221042824E1,1.493981838E0,1.231820803E1
7.550426262E0,-1.321599364E0,-1.264138508E1,1.177947283E0,1.276474839E1
7.555461579E0,-1.857900500E0,-1.298614979E1,7.948749661E-1,1.314243915E1
7.560466379E0,-2.250549555E0,-1.322556973E1,3.926490843E-1,1.342143216E1
7.565501696E0,-2.710236311E0,-1.348414421E1,-3.064578176E-1,1.375723237E1
7.570537013E0,-2.911349297E0,-1.346499062E1,-9.959878922E-1,1.381209321E1
7.575572329E0,-3.074155092E0,-1.336922264E1,-1.484405041E0,1.379818836E1
7.580577129E0,-3.055001259E0,-1.295741940E1,-2.030282974E0,1.346661795E1
7.585612446E0,-2.997540474E0,-1.238281155E1,-2.384624958E0,1.296170154E1
7.590647763E0,-2.691082716E0,-1.169328117E1,-2.518700123E0,1.226044865E1
7.595683079E0,-2.288856745E0,-1.109951878E1,-2.633621931E0,1.163503961E1
7.600687879E0,-1.963245392E0,-1.048660374E1,-2.518700123E0,1.096207283E1
7.605723197E0,-1.695094824E0,-9.931148529E0,-2.221819162E0,1.031685698E1
7.610758513E0,-1.493981838E0,-9.634267807E0,-1.896207690E0,9.932104586E0
7.615793829E0,-1.532289028E0,-9.452308655E0,-1.474828243E0,9.688610164E0
7.620829147E0,-1.503558636E0,-9.481039047E0,-9.864110947E-1,9.650067193E0
7.625833947E0,-1.331176162E0,-9.509769440E0,-6.224924326E-1,9.622642132E0
7.630869263E0,-1.015141487E0,-9.471462250E0,-4.405331016E-1,9.535888988E0
7.635904580E0,-7.469909191E-1,-9.595960617E0,-2.873041928E-1,9.629278233E0
7.640939897E0,-4.213795066E-1,-9.672574997E0,-1.340752989E-1,9.682677519E0
7.645944697E0,-6.703764945E-2,-9.720458984E0,-1.340752989E-1,9.721614737E0
7.650980013E0,4.501099288E-1,-9.787496567E0,-1.819593310E-1,9.799530458E0
7.656015330E0,9.002198577E-1,-9.979032516E0,-7.661445439E-2,1.001984808E1
7.661050647E0,1.407790542E0,-1.006522369E1,-2.873042040E-2,1.016323903E1
7.666085964E0,1.867477298E0,-1.006522369E1,-1.723825186E-1,1.023845277E1
7.671090764E0,2.269703150E0,-1.004607010E1,-2.011129409E-1,1.030123892E1
7.676126080E0,2.710236311E0,-1.003649330E1,-2.202665508E-1,1.039832179E1
7.681161397E0,2.920926094E0,-9.998186111E0,2.873042040E-2,1.041615861E1
7.686196714E0,3.035847664E0,-1.007480049E1,2.968810201E-1,1.052644832E1
7.691201514E0,3.294421434E0,-1.003649330E1,3.639186621E-1,1.056961906E1
7.696236830E0,3.179499865E0,-1.008437729E1,3.447650373E-1,1.057935478E1
7.701272148E0,3.112462282E0,-1.014183807E1,4.501099288E-1,1.061823431E1
7.706307464E0,3.074155092E0,-1.010353088E1,3.830722570E-1,1.056780536E1
7.711342780E0,3.131615877E0,-9.988609314E0,1.819593310E-1,1.046959613E1
7.716347580E0,3.169923067E0,-9.979032516E0,1.340752989E-1,1.047126919E1
7.721382898E0,3.208230257E0,-9.787496567E0,1.532289088E-1,1.030103439E1
7.726418214E0,3.150769472E0,-9.777919769E0,4.788403213E-2,1.027313760E1
7.731453531E0,3.074155092E0,-9.672574997E0,8.619125932E-2,1.014970766E1
7.736488848E0,2.825158119E0,-9.595960617E0,4.788403213E-2,1.000331302E1
7.741493648E0,2.710236311E0,-9.366117477E0,-1.915361285E-1,9.752241976E0
7.746528964E0,2.327163935E0,-9.318233490E0,-5.267243981E-1,9.618867186E0
7.751564281E0,2.078166962E0,-9.270348549E0,-9.959878922E-1,9.552493497E0
7.756599598E0,1.752555609E0,-9.069235802E0,-1.197100878E0,9.314265387E0
7.761604398E0,1.503558636E0,-9.155426979E0,-1.426944256E0,9.387156207E0
7.766639715E0,1.139639974E0,-9.059659004E0,-1.790862918E0,9.305019642E0
7.771675031E0,1.120486379E0,-9.050082207E0,-1.848323703E0,9.304610587E0
7.776710348E0,1.053448796E0,-9.155426979E0,-2.106897593E0,9.453603281E0
7.781715148E0,1.024718285E0,-9.136273384E0,-2.288856745E0,9.474196753E0
7.786750465E0,9.576807022E-1,-9.184157372E0,-2.260126352E0,9.506527762E0
7.791785781E0,8.714894056E-1,-9.212887764E0,-2.068590164E0,9.482397376E0
7.796821099E0,7.469909191E-1,-9.193734169E0,-1.723825216E0,9.383726167E0
7.801856415E0,6.895300746E-1,-9.040505409E0,-1.570596337E0,9.201791273E0
7.806861215E0,5.554547906E-1,-8.944737434E0,-1.312022567E0,9.057497503E0
7.811896531E0,4.596867263E-1,-8.724471092E0,-1.063025594E0,8.801007393E0
7.816931849E0,3.830722570E-1,-8.513781548E0,-1.024718285E0,8.583779363E0
7.821967165E0,3.160346150E-1,-8.312667847E0,-9.385270476E-1,8.371448956E0
7.826971965E0,3.351882398E-1,-8.073247910E0,-1.206677675E0,8.169807463E0
7.832007282E0,2.873041928E-1,-7.824251175E0,-1.197100878E0,7.920511389E0
7.837042599E0,2.681505978E-1,-7.671022415E0,-1.359906554E0,7.795244414E0
7.842077915E0,1.053448766E-1,-7.469909191E0,-1.426944256E0,7.605709091E0
7.847082715E0,-3.830722719E-2,-7.441178799E0,-1.484405041E0,7.587889541E0
7.852118032E0,-8.619125932E-2,-7.278373241E0,-1.436521053E0,7.419281550E0
7.857153349E0,-1.723825186E-1,-7.220912457E0,-1.436521053E0,7.364433799E0
7.862188666E0,-1.340752989E-1,-7.125144482E0,-1.493981838E0,7.281321432E0
7.867223983E0,9.576806426E-2,-7.029376030E0,-1.398213744E0,7.167726318E0
7.872228782E0,2.585737705E-1,-6.962338448E0,-1.493981838E0,7.125517440E0
7.877264099E0,5.458779931E-1,-6.876147270E0,-1.513135433E0,7.061796011E0
7.882299416E0,8.523358107E-1,-7.019799232E0,-1.675941229E0,7.267244086E0
7.887334732E0,1.082179189E0,-7.182605267E0,-1.924938202E0,7.514407315E0
7.892339532E0,1.493981838E0,-7.345410824E0,-2.030282974E0,7.765892792E0
7.897374850E0,1.771709204E0,-7.517793179E0,-2.135627985E0,8.013555682E0
7.902410166E0,2.059013367E0,-7.498639584E0,-2.116474390E0,8.059069146E0
7.907414966E0,2.394201756E0,-7.546523571E0,-2.001552582E0,8.166298598E0
7.912450282E0,2.738966703E0,-7.517793179E0,-2.039859772E0,8.257129087E0
7.917485600E0,2.863465309E0,-7.575253963E0,-1.829170108E0,8.302395406E0
7.922520916E0,3.131615877E0,-7.527369976E0,-1.877054095E0,8.366101173E0
7.927525716E0,3.361459255E0,-7.469909191E0,-1.752555609E0,8.376777591E0
7.932561033E0,3.581725836E0,-7.508216381E0,-1.685518026E0,8.487817399E0
7.937596350E0,3.763684988E0,-7.536946774E0,-1.666364431E0,8.587645881E0
7.942631666E0,3.907337189E0,-7.498639584E0,-1.800439715E0,8.645140987E0
7.947636466E0,4.165910721E0,-7.680599213E0,-2.068590164E0,8.979169319E0
7.952671783E0,4.319139957E0,-7.738059998E0,-2.260126352E0,9.145529707E0
7.957707100E0,4.424484730E0,-7.747636795E0,-2.461239338E0,9.255249327E0
7.962742417E0,4.596867085E0,-7.862558365E0,-2.882618904E0,9.553036312E0
7.967747217E0,4.577713490E0,-8.063671112E0,-3.179499865E0,9.802421741E0
7.972782533E0,4.807557106E0,-8.169015884E0,-3.667917013E0,1.016361358E1
7.977817850E0,4.932055473E0,-8.408436775E0,-3.983951569E0,1.053085231E1
7.982853167E0,4.979939461E0,-8.628703117E0,-4.367023945E0,1.087773932E1
7.987857967E0,5.123591423E0,-8.781931877E0,-4.635174274E0,1.117400363E1
7.992893283E0,5.228936672E0,-8.868123055E0,-4.663905144E0,1.130209699E1
7.997928601E0,5.573701382E0,-8.820239067E0,-4.702212334E0,1.144436827E1
8.002963917E0,5.841852188E0,-8.781931877E0,-4.510675907E0,1.147151959E1
8.007968717E0,6.062118530E0,-8.609549522E0,-4.175487995E0,1.132732643E1
8.013004033E0,6.320692539E0,-8.494627953E0,-3.792415380E0,1.124687835E1
8.018039351E0,6.473921299E0,-8.485051155E0,-3.284844637E0,1.116682383E1
8.023044150E0,6.502651691E0,-8.590395927E0,-3.035847664E0,1.119355852E1
8.028079467E0,6.445190907E0,-8.686163902E0,-3.112462282E0,1.125510331E1
8.033114784E0,6.291962147E0,-8.801085472E0,-3.371036053E0,1.133189204E1
8.038150101E0,6.224924564E0,-8.877699852E0,-3.936067581E0,1.153498455E1
8.043154900E0,6.167463779E0,-9.011775017E0,-4.453215122E0,1.179325330E1
8.048190217E0,6.138733387E0,-9.193734169E0,-5.142745018E0,1.219248219E1
8.053225534E0,6.014234543E0,-9.548076630E0,-5.908889771E0,1.273780840E1
8.058260851E0,5.669469833E0,-9.758766174E0,-6.215347767E0,1.288436856E1
8.063265650E0,5.391742229E0,-1.005564690E1,-6.454767704E0,1.310919314E1
8.068300968E0,4.951209068E0,-1.034295177E1,-6.502651691E0,1.318239742E1
8.073336284E0,4.606443882E0,-1.051533413E1,-6.263231754E0,1.307744811E1
8.078371601E0,4.252102375E0,-1.056321812E1,-5.995080948E0,1.286868086E1
8.083376400E0,3.773261786E0,-1.044829655E1,-5.602431774E0,1.244152913E1
8.088411718E0,3.265691042E0,-1.015141487E1,-5.094861031E0,1.181835736E1
8.093447034E0,2.825158119E0,-9.691728592E0,-4.702212334E0,1.113651302E1
8.098482352E0,2.595314741E0,-8.801085472E0,-4.156333923E0,1.007322569E1
8.103487151E0,2.442085743E0,-7.987056732E0,-3.792415380E0,9.172746178E0
8.108522468E0,2.422932148E0,-7.316680431E0,-3.600879431E0,8.507099706E0
8.113557784E0,2.240972757E0,-6.665457726E0,-3.361459255E0,7.794208999E0
8.118562584E0,2.049436569E0,-6.205770969E0,-3.141192675E0,7.251129222E0
8.123597901E0,1.982398987E0,-6.100425720E0,-3.189076662E0,7.163470504E0
8.128633218E0,1.848323703E0,-6.330269337E0,-3.160346270E0,7.312755905E0
8.133668535E0,1.666364431E0,-7.019799232E0,-3.189076662E0,7.888254664E0
8.138673335E0,1.340752959E0,-7.852981567E0,-3.035847664E0,8.525450665E0
8.143708651E0,1.072602391E0,-8.734047890E0,-3.074155092E0,9.321185438E0
8.148743968E0,9.672574997E-1,-9.442731857E0,-3.208230257E0,1.001965635E1
8.153748768E0,1.168370485E0,-1.025675964E1,-3.677493811E0,1.095856600E1
8.158784085E0,1.043871999E0,-1.114740276E1,-3.246537447E0,1.165736945E1
8.163819401E0,1.503558636E0,-1.183693314E1,-3.189076662E0,1.235086574E1
8.168854719E0,1.800439715E0,-1.249773312E1,-2.767697096E0,1.292652557E1
8.173859518E0,1.934514999E0,-1.304361057E1,-2.633621931E0,1.344671296E1
8.178894835E0,2.116474390E0,-1.365652657E1,-2.911349297E0,1.412289405E1
8.183930151E0,1.991975784E0,-1.408748245E1,-3.256114244E0,1.459545852E1
8.188965469E0,1.723825216E0,-1.442267132E1,-3.418920040E0,1.492226644E1
8.193970268E0,1.714248419E0,-1.446097851E1,-3.409343243E0,1.495600777E1
8.199005585E0,1.675941229E0,-1.450886250E1,-3.217807055E0,1.495560604E1
8.204040902E0,1.312022567E0,-1.456632328E1,-3.256114244E0,1.498337269E1
8.209076219E0,1.072602391E0,-1.442267132E1,-3.792415380E0,1.495146609E1
8.214081018E0,9.768342972E-1,-1.420240402E1,-4.462791920E0,1.491908164E1
8.219116335E0,8.331822157E-1,-1.390552330E1,-5.554547787E0,1.499702544E1
8.224151652E0,8.906430602E-1,-1.343626022E1,-6.004657745E0,1.474388851E1
8.229156452E0,8.810662031E-1,-1.241154194E1,-5.401319027E0,1.356454563E1
8.234191768E0,8.906430602E-1,-1.131020927E1,-4.165910721E0,1.208589637E1
8.239227085E0,6.224924326E-1,-1.029506683E1,-2.202665567E0,1.054645123E1
8.244262402E0,3.351882398E-1,-9.528923035E0,-4.213795066E-1,9.544123116E0
8.249267202E0,2.489969730E-1,-8.801085472E0,8.523358107E-1,8.845766293E0
8.254302518E0,1.436520964E-1,-8.408436775E0,2.154781580E0,8.681332190E0
8.259337836E0,1.053448766E-1,-8.245630264E0,2.987963676E0,8.770943104E0
8.264373152E0,-2.777273953E-1,-8.188169479E0,3.572149038E0,8.937757027E0
8.269377952E0,-4.309563041E-1,-8.283937454E0,4.050989151E0,9.231460133E0
8.274413268E0,-6.129156351E-1,-8.350975990E0,4.089296341E0,9.318627052E0
8.279448586E0,-8.714894056E-1,-8.561665535E0,4.003105164E0,9.491388806E0
8.284483902E0,-9.768342972E-1,-8.599972725E0,3.552995205E0,9.356148301E0
8.289488702E0,-7.086837292E-1,-8.647856712E0,2.911349297E0,9.152246340E0
8.294524019E0,-3.639186621E-1,-8.724471092E0,2.461239338E0,9.072294732E0
8.299559336E0,-9.576806799E-3,-8.868123055E0,1.934514999E0,9.076675961E0
8.304594653E0,2.968810201E-1,-8.983044624E0,1.714248419E0,9.149965940E0
8.309599452E0,5.841852427E-1,-9.165003777E0,1.273715258E0,9.271511052E0
