"Time (s)","Acceleration x (m/s^2)","Acceleration y (m/s^2)","Acceleration z (m/s^2)","Absolute acceleration (m/s^2)"
8.147737000E-3,-2.633621931E0,3.390189648E0,5.104437828E0,6.669680342E0
1.315253200E-2,-2.853888512E0,3.332728863E0,5.439626217E0,6.988654712E0
1.818784600E-2,-2.796427488E0,3.303998232E0,5.966350555E0,7.371143057E0
2.322315900E-2,-2.662352324E0,3.371036053E0,6.646304131E0,7.913618803E0
2.825847300E-2,-2.470816135E0,3.505111217E0,7.268796444E0,8.439557972E0
3.326326900E-2,-2.030282974E0,3.639186621E0,7.709329605E0,8.763531889E0
3.829858300E-2,-1.532289028E0,3.763684988E0,8.427590370E0,9.356148449E0
4.333389600E-2,-9.959878922E-1,3.945644379E0,8.820239067E0,9.713738654E0
4.836920900E-2,-6.033388376E-1,3.849876404E0,9.050082207E0,9.853403170E0
5.337400500E-2,2.202665508E-1,3.323152065E0,7.374141216E0,8.091342020E0
5.840931900E-2,3.543418646E-1,3.428496838E0,8.513781548E0,9.185021773E0
6.344463300E-2,6.033388376E-1,3.447650433E0,8.983044624E0,9.640819570E0
6.847994600E-2,1.110909581E0,3.409343243E0,8.916007042E0,9.610042821E0
7.351526000E-2,1.589749932E0,3.811569214E0,1.081221485E1,1.157408116E1
7.852005600E-2,1.244984865E0,3.552995205E0,1.142513084E1,1.202943794E1
8.355536900E-2,1.024718285E0,3.399766445E0,9.203310966E0,9.864552306E0
8.859068200E-2,7.374141216E-1,3.390189648E0,1.083136845E1,1.137346508E1
9.362599600E-2,5.650315881E-1,3.074155092E0,1.073560047E1,1.118135983E1
9.866130900E-2,4.022258818E-1,2.748543501E0,1.086009884E1,1.120972898E1
1.036661060E-1,7.661445439E-2,2.279279947E0,1.084094524E1,1.107822552E1
1.087014190E-1,-4.022258818E-1,1.829170108E0,1.040998936E1,1.057712283E1
1.137367330E-1,-1.015141487E0,1.302445769E0,1.003649330E1,1.017143427E1
1.187720460E-1,-1.426944256E0,9.289502501E-1,9.710882187E0,9.859023852E0
1.237768430E-1,-1.637633920E0,6.224924326E-1,9.567230225E0,9.726316664E0
1.288121560E-1,-1.589749932E0,4.788403511E-1,9.481039047E0,9.625315285E0
1.338474700E-1,-1.359906554E0,4.309563041E-1,9.308655739E0,9.417331938E0
1.388827830E-1,-8.906430602E-1,5.937620401E-1,9.270348549E0,9.331943026E0
1.439180970E-1,-3.351882398E-1,9.193734527E-1,9.002198219E0,9.055228958E0
1.489228920E-1,4.213795066E-1,1.321599364E0,8.676587105E0,8.786771270E0
1.539582060E-1,1.331176162E0,2.001552582E0,8.331821442E0,8.671648704E0
1.589935190E-1,1.934514999E0,2.518700123E0,8.169015884E0,8.764645978E0
1.640288330E-1,2.604891539E0,3.179499865E0,8.839392662E0,9.748309697E0
1.690641460E-1,3.351882458E0,3.926490784E0,1.023760605E1,1.146564536E1
1.740689430E-1,3.380612850E0,4.252102375E0,1.121444035E1,1.246084227E1
1.791042560E-1,3.275267839E0,4.271255970E0,1.257434750E1,1.367791000E1
1.841395700E-1,2.595314741E0,3.955221176E0,1.318726254E1,1.401011514E1
1.891748830E-1,2.059013367E0,3.303998232E0,1.301488018E1,1.358466218E1
1.942101960E-1,1.541865945E0,2.786850691E0,1.278503704E1,1.317577548E1
1.992149930E-1,1.187524080E0,2.384624958E0,1.258392429E1,1.286280686E1
2.042503070E-1,8.619126081E-1,2.106897593E0,1.248815632E1,1.269393395E1
2.092856200E-1,6.512228847E-1,1.781286120E0,1.242111874E1,1.256508106E1
2.143209330E-1,3.926490843E-1,1.551442742E0,1.247857952E1,1.258078276E1
2.193257290E-1,1.436520964E-1,1.532289028E0,1.229662037E1,1.239255495E1
2.243610430E-1,-1.053448766E-1,1.426944256E0,1.239238834E1,1.247471668E1
2.293963560E-1,7.661445439E-2,1.781286120E0,1.238281155E1,1.251051045E1
2.344316690E-1,1.532289088E-1,2.154781580E0,1.235408115E1,1.254152638E1
2.394669830E-1,-5.746084079E-2,2.145204782E0,1.237323475E1,1.255795140E1
2.444717800E-1,-2.011129409E-1,2.336740971E0,1.221042824E1,1.243363835E1
2.495070930E-1,-4.213795066E-1,2.020706177E0,1.189439392E1,1.207217548E1
2.545424060E-1,-4.309563041E-1,2.202665567E0,1.130063248E1,1.152136074E1
2.595777200E-1,-4.022258818E-1,2.298433542E0,1.051533413E1,1.077111110E1
2.646130330E-1,-4.692635238E-1,2.585737944E0,9.586383820E0,9.940070609E0
2.696178300E-1,-5.554547906E-1,2.691082716E0,8.801085472E0,9.220062998E0
2.746531430E-1,-6.033388376E-1,2.911349297E0,8.590395927E0,9.090372636E0
2.796884570E-1,-7.852981687E-1,2.968810081E0,8.418013573E0,8.960662867E0
2.846932520E-1,-1.101332784E0,2.806004286E0,8.427590370E0,8.950467775E0
2.897285660E-1,-1.714248419E0,2.432508945E0,8.542511940E0,9.046007830E0
2.947638790E-1,-2.298433542E0,1.800439715E0,9.279925346E0,9.728380870E0
2.997991940E-1,-2.557007313E0,1.225831270E0,1.004607010E1,1.043860494E1
3.048345070E-1,-2.853888512E0,7.086837292E-1,1.048660374E1,1.089108673E1
3.098393030E-1,-2.920926094E0,4.884171486E-1,1.107078838E1,1.146004869E1
3.148746160E-1,-2.815581083E0,3.926490843E-1,1.155920601E1,1.190365128E1
3.199099300E-1,-2.767697096E0,4.118026793E-1,1.187524033E1,1.220045333E1
3.249452430E-1,-2.662352324E0,6.129156351E-1,1.188481712E1,1.219478018E1
3.299500400E-1,-2.604891539E0,9.097966552E-1,1.132936287E1,1.166051684E1
3.349853530E-1,-2.633621931E0,1.158793569E0,1.049618053E1,1.088340814E1
3.400206670E-1,-2.729389906E0,1.465251446E0,9.777919769E0,1.025691211E1
3.450559800E-1,-2.892195702E0,1.723825216E0,9.050082207E0,9.656104665E0
3.500607760E-1,-2.949656487E0,2.039859772E0,8.667010307E0,9.379689171E0
3.550960890E-1,-2.882618904E0,2.327163935E0,8.456320763E0,9.232255660E0
3.601314040E-1,-2.671929121E0,2.834734917E0,8.695740700E0,9.528422408E0
3.651667170E-1,-2.183511972E0,3.351882458E0,9.126696587E0,9.964909991E0
3.702020300E-1,-2.202665567E0,3.026270866E0,9.787496567E0,1.047879478E1
3.752068260E-1,-1.474828243E0,3.227383852E0,9.835380554E0,1.045589956E1
3.802421400E-1,-1.225831270E0,3.495534420E0,1.084094524E1,1.145633087E1
3.852774530E-1,-7.661445141E-1,3.677493811E0,1.195185471E1,1.252827877E1
3.903127660E-1,-4.596867263E-1,3.648763418E0,1.267969227E1,1.320224914E1
3.953175630E-1,-4.309563041E-1,3.361459255E0,1.374271774E1,1.415441354E1
4.003528770E-1,-4.309563041E-1,2.959233284E0,1.424071217E1,1.455131155E1
4.053881900E-1,-6.129156351E-1,2.537853718E0,1.435563374E1,1.459111329E1
4.104235030E-1,-6.991068721E-1,1.905784607E0,1.433648014E1,1.447948301E1
4.154283000E-1,-6.895300746E-1,1.436521053E0,1.453759289E1,1.462465902E1
4.204636140E-1,-8.236053586E-1,9.959878922E-1,1.437478733E1,1.443276926E1
4.254989270E-1,-8.331822157E-1,7.182605267E-1,1.465251446E1,1.469374938E1
4.305342400E-1,-9.481038451E-1,2.394201756E-1,1.445140171E1,1.448444802E1
4.355390360E-1,-9.576807022E-1,5.746084079E-2,1.434605694E1,1.437810153E1
4.405743500E-1,-9.289502501E-1,-1.628057212E-1,1.440351772E1,1.443436099E1
4.456096630E-1,-9.576807022E-1,-2.873041928E-1,1.430774975E1,1.434264267E1
4.506449760E-1,-9.481038451E-1,-4.309563041E-1,1.402044487E1,1.405907175E1
4.556802900E-1,-9.097966552E-1,-3.926490843E-1,1.371398735E1,1.374974008E1
4.606850870E-1,-9.481038451E-1,-4.022258818E-1,1.335006905E1,1.338973600E1
4.657204000E-1,-1.063025594E0,-5.267243981E-1,1.290953541E1,1.296393329E1
4.707557130E-1,-1.082179189E0,-3.543418646E-1,1.227746677E1,1.233016060E1
4.757910270E-1,-1.177947283E0,-2.489969730E-1,1.157835960E1,1.164078908E1
4.808263400E-1,-1.101332784E0,0.000000000E0,1.086009884E1,1.091579959E1
4.858311370E-1,-1.197100878E0,1.436520964E-1,1.022802925E1,1.029884794E1
4.908664500E-1,-1.216254473E0,3.447650373E-1,9.548076630E0,9.631402037E0
4.959017640E-1,-1.082179189E0,6.033388376E-1,8.935160637E0,9.020655473E0
5.009370770E-1,-1.091755986E0,9.481038451E-1,9.097966194E0,9.212156149E0
5.059418730E-1,-6.895300746E-1,1.043871999E0,9.500192642E0,9.582211682E0
5.109771860E-1,-4.213795066E-1,7.565677166E-1,9.490615845E0,9.530044308E0
5.160125000E-1,1.819593310E-1,7.948749661E-1,9.911994934E0,9.945480329E0
5.210478130E-1,5.554547906E-1,6.895300746E-1,1.014183807E1,1.018041557E1
5.260831260E-1,9.385270476E-1,6.799532771E-1,1.045787334E1,1.052189547E1
5.310879230E-1,1.446097851E0,8.523358107E-1,1.039083576E1,1.052554717E1
5.361232370E-1,1.618480325E0,1.043871999E0,1.020887566E1,1.038895035E1
5.411585500E-1,1.704671621E0,1.197100878E0,9.854534149E0,1.007227875E1
5.461938630E-1,1.790862918E0,1.474828243E0,9.509769440E0,9.788668098E0
5.511986600E-1,2.030282974E0,1.714248419E0,9.117119789E0,9.496450381E0
5.562339740E-1,2.221819162E0,2.039859772E0,8.504204750E0,9.023248124E0
5.612692870E-1,2.403778553E0,2.173935175E0,7.958326340E0,8.592968265E0
5.663046000E-1,2.595314741E0,2.231395960E0,7.479485989E0,8.225417752E0
5.713399140E-1,2.604891539E0,2.202665567E0,6.713341713E0,7.530348762E0
5.763447100E-1,2.691082716E0,2.059013367E0,5.928043365E0,6.828115433E0
5.813800230E-1,2.470816135E0,1.896207690E0,5.123591423E0,5.995975738E0
5.864153360E-1,2.231395960E0,1.877054095E0,4.271255970E0,5.171661973E0
5.914506500E-1,2.145204782E0,1.771709204E0,3.514688015E0,4.482620763E0
5.964554470E-1,1.963245392E0,1.675941229E0,2.930502892E0,3.905247581E0
6.014907600E-1,1.695094824E0,1.589749932E0,2.614468336E0,3.498013149E0
6.065260730E-1,1.426944256E0,1.340752959E0,2.557007313E0,3.220570571E0
6.115613870E-1,1.273715258E0,1.158793569E0,2.700659513E0,3.202922868E0
6.165967000E-1,1.197100878E0,1.034295082E0,3.074155092E0,3.457346722E0
6.216014970E-1,1.168370485E0,9.768342972E-1,3.562572241E0,3.874431030E0
6.266368100E-1,1.436521053E0,7.469909191E-1,4.347870350E0,4.639565147E0
6.316721240E-1,1.637633920E0,4.596867263E-1,5.046977043E0,5.325892790E0
6.367074370E-1,1.561019540E0,3.447650373E-1,5.841852188E0,6.056639491E0
6.417122330E-1,1.647210717E0,0.000000000E0,6.531382084E0,6.735893042E0
6.467475460E-1,1.704671621E0,-2.298433632E-1,7.278373241E0,7.478866916E0
6.517828610E-1,1.867477298E0,-5.554547906E-1,7.920019150E0,8.156145218E0
6.568181740E-1,2.001552582E0,-6.607996821E-1,8.312667847E0,8.575739950E0
6.618534880E-1,2.154781580E0,-7.278373241E-1,8.322244644E0,8.627432222E0
6.668582830E-1,2.355894566E0,-7.661445141E-1,8.149862289E0,8.518067384E0
6.718935970E-1,2.557007313E0,-7.374141216E-1,7.527369976E0,7.983944184E0
6.769289100E-1,2.863465309E0,-4.692635238E-1,6.464344501E0,7.085717442E0
6.819642240E-1,2.748543501E0,-3.256114423E-1,5.554547787E0,6.205925822E0
6.869690200E-1,3.026270866E0,1.340752989E-1,4.596867085E0,5.505222842E0
6.920043340E-1,3.390189648E0,6.799532771E-1,3.878606796E0,5.196086314E0
6.970396470E-1,3.734954596E0,1.379060149E0,3.754108191E0,5.472204403E0
7.020749610E-1,4.491522312E0,2.020706177E0,7.824251175E0,9.245319496E0
7.071102740E-1,4.108449936E0,2.078166962E0,7.527369976E0,8.823799496E0
7.121150710E-1,4.089296341E0,2.308010340E0,4.108449936E0,6.239280180E0
7.171503840E-1,4.443638325E0,2.049436569E0,4.606443882E0,6.720523570E0
7.221856970E-1,4.261679173E0,1.924938202E0,5.161899090E0,6.965091433E0
7.271904930E-1,4.299986362E0,2.461239338E0,6.320692539E0,8.031110507E0
7.322258070E-1,3.552995205E0,2.442085743E0,8.609549522E0,9.628701921E0
7.372611200E-1,3.150769472E0,2.231395960E0,1.063983250E1,1.131867977E1
7.422964330E-1,3.371036053E0,2.097320795E0,1.238281155E1,1.300371718E1
7.473012300E-1,3.667917013E0,1.723825216E0,1.470997524E1,1.525806542E1
7.523365440E-1,3.639186621E0,1.197100878E0,1.658702850E1,1.702369655E1
7.573718570E-1,3.677493811E0,5.650315881E-1,1.796608925E1,1.834730455E1
7.624071700E-1,3.466804028E0,1.244984865E-1,1.869392776E1,1.901307880E1
7.674424840E-1,3.208230257E0,-2.394201756E-1,1.905784607E1,1.932748199E1
7.724472810E-1,2.844311714E0,-4.501099288E-1,1.894292450E1,1.916056097E1
7.774825940E-1,2.480392933E0,-5.554547906E-1,1.840662193E1,1.858129732E1
7.825179070E-1,2.164358377E0,-4.309563041E-1,1.734359741E1,1.748343621E1
7.875532210E-1,1.723825216E0,-1.436520964E-1,1.631887817E1,1.641030146E1
7.925580170E-1,1.312022567E0,2.681505978E-1,1.551442719E1,1.557211478E1
7.975933300E-1,1.187524080E0,7.469909191E-1,1.525585365E1,1.532022453E1
8.026286430E-1,1.379060149E0,1.110909581E0,1.516008472E1,1.526316140E1
8.076639570E-1,1.647210717E0,1.608903527E0,1.498770237E1,1.516354497E1
8.126992700E-1,1.886630893E0,2.030282974E0,1.470997524E1,1.496879410E1
8.177040670E-1,2.049436569E0,2.260126352E0,1.429817295E1,1.462005852E1
8.227393800E-1,1.819593310E0,2.509123325E0,1.382890892E1,1.417199145E1
8.277746940E-1,1.675941229E0,2.748543501E0,1.315853214E1,1.354659509E1
8.328100070E-1,1.312022567E0,2.882618904E0,1.230619717E1,1.270721778E1
8.378453210E-1,9.002198577E-1,3.045424461E0,1.166455078E1,1.208911704E1
8.428501170E-1,7.086837292E-1,3.141192675E0,1.064940929E1,1.112561200E1
8.478854310E-1,2.777273953E-1,3.275267839E0,1.067813969E1,1.117260843E1
8.529207440E-1,1.915361360E-2,3.514688015E0,1.023760605E1,1.082413859E1
8.579560580E-1,-6.703764945E-2,3.505111217E0,9.433155060E0,1.006353383E1
8.629608530E-1,-5.746084079E-2,3.629609823E0,8.839392662E0,9.555743396E0
8.679961670E-1,-1.532289088E-1,3.811569214E0,8.628703117E0,9.434302118E0
8.730314800E-1,-8.619125932E-2,3.859453201E0,8.695740700E0,9.514132344E0
8.780667940E-1,-2.585737705E-1,4.003105164E0,8.944737434E0,9.803062742E0
8.831021070E-1,-3.256114423E-1,3.878606796E0,9.346963882E0,1.012498629E1
8.881069040E-1,-4.118026793E-1,3.859453201E0,9.701305389E0,1.044893711E1
8.931422170E-1,-4.309563041E-1,3.725377798E0,9.844957352E0,1.053505331E1
8.981775310E-1,-5.650315881E-1,3.610456228E0,1.010353088E1,1.074411426E1
9.032128440E-1,-6.607996821E-1,3.428496838E0,1.037168217E1,1.094363001E1
9.082176410E-1,-7.374141216E-1,3.246537447E0,1.038125896E1,1.090203296E1
9.132529540E-1,-8.427590132E-1,3.150769472E0,1.040998936E1,1.090896280E1
9.182882680E-1,-9.097966552E-1,2.949656487E0,1.007480049E1,1.053706830E1
9.233235810E-1,-9.959878922E-1,2.949656487E0,9.586383820E0,1.007924700E1
9.283588940E-1,-5.650315881E-1,2.968810081E0,8.753201485E0,9.260217612E0
9.333636900E-1,-7.565677166E-1,3.150769472E0,8.456320763E0,9.055887798E0
9.383990040E-1,-6.799532771E-1,3.313575268E0,7.498639584E0,8.226281853E0
9.434343170E-1,-8.331822157E-1,3.323152065E0,6.809109688E0,7.622434453E0
9.484696310E-1,-9.289502501E-1,3.313575268E0,6.014234543E0,6.929195246E0
9.535049450E-1,-1.005564690E0,3.141192675E0,5.497087002E0,6.410633141E0
9.585097400E-1,-9.385270476E-1,2.968810081E0,4.999093056E0,5.889447996E0
9.635450540E-1,-9.959878922E-1,2.719813108E0,4.740519524E0,5.555348826E0
9.685803670E-1,-1.158793569E0,2.518700123E0,4.644751072E0,5.409285107E0
9.736156810E-1,-1.321599364E0,2.269703150E0,4.596867085E0,5.294276557E0
9.786204770E-1,-1.513135433E0,1.991975784E0,4.405331135E0,5.066013104E0
9.836557910E-1,-1.810016513E0,1.618480325E0,4.548983097E0,5.156441172E0
9.886911040E-1,-1.991975784E0,1.225831270E0,4.807557106E0,5.346329129E0
9.937264180E-1,-2.126051188E0,8.906430602E-1,5.171475887E0,5.661934437E0
9.987617310E-1,-2.221819162E0,7.852981687E-1,5.669469833E0,6.139711866E0
1.003766528E0,-1.924938202E0,6.991068721E-1,6.493074894E0,6.808388875E0
1.008801841E0,-1.551442742E0,7.374141216E-1,7.077260017E0,7.282744230E0
1.013837155E0,-1.455674648E0,5.746083856E-1,8.063671112E0,8.214131438E0
1.018872468E0,-1.436521053E0,3.447650373E-1,8.101978302E0,8.235563616E0
1.023907781E0,-1.666364431E0,1.628057212E-1,8.255207062E0,8.423284380E0
1.028912577E0,-1.934514999E0,1.915361285E-1,8.063671112E0,8.294686623E0
1.033947891E0,-2.164358377E0,7.661445439E-2,7.594407558E0,7.897173110E0
1.038983204E0,-2.126051188E0,5.746084079E-2,6.780379295E0,7.106119812E0
1.044018517E0,-2.308010340E0,2.873041928E-1,6.349422932E0,6.761998742E0
1.049023314E0,-2.442085743E0,5.841852427E-1,6.014234543E0,6.517366977E0
1.054058628E0,-2.719813108E0,1.091755986E0,5.956773758E0,6.638709821E0
1.059093941E0,-2.662352324E0,1.771709204E0,5.679046631E0,6.517564271E0
1.064129254E0,-2.489969730E0,2.470816135E0,5.487510204E0,6.512883376E0
1.069134051E0,-2.154781580E0,3.189076662E0,5.391742229E0,6.624513407E0
1.074169365E0,-1.781286120E0,3.734954596E0,5.238513470E0,6.675693930E0
1.079204678E0,-1.426944256E0,4.156333923E0,5.554547787E0,7.082674827E0
1.084239991E0,-1.187524080E0,4.529829502E0,6.129156113E0,7.713373024E0
1.089244787E0,-1.101332784E0,4.587290287E0,7.153874874E0,8.569369393E0
1.094280101E0,-9.959878922E-1,4.328716755E0,8.360552788E0,9.467239489E0
1.099315414E0,-9.385270476E-1,3.955221176E0,9.567230225E0,1.039502293E1
1.104350727E0,-1.043871999E0,3.284844637E0,1.098459721E1,1.151265603E1
1.109386041E0,-1.264138460E0,2.528276920E0,1.216254425E1,1.248670144E1
1.114390838E0,-1.905784607E0,1.886630893E0,1.367568016E1,1.393612640E1
1.119426151E0,-2.509123325E0,1.139639974E0,1.491108799E1,1.516360855E1
1.124461464E0,-2.892195702E0,5.841852427E-1,1.584003830E1,1.611250700E1
1.129496778E0,-3.122039080E0,1.436520964E-1,1.649126053E1,1.678479782E1
1.134501575E0,-3.045424461E0,-1.340752989E-1,1.670195198E1,1.697786165E1
1.139536888E0,-2.786850691E0,0.000000000E0,1.642422295E1,1.665898065E1
1.144572201E0,-2.212242365E0,4.692635238E-1,1.600284386E1,1.616184507E1
1.149607515E0,-1.398213744E0,1.130063176E0,1.516966152E1,1.527581995E1
1.154642828E0,-4.692635238E-1,1.848323703E0,1.434605694E1,1.447224442E1
1.159647624E0,3.447650373E-1,2.509123325E0,1.365652657E1,1.388939454E1
1.164682937E0,1.091755986E0,3.016694069E0,1.324472427E1,1.362773258E1
1.169718251E0,1.503558636E0,3.332728863E0,1.295741940E1,1.346337579E1
1.174753564E0,1.800439715E0,3.428496838E0,1.344583702E1,1.399238032E1
1.179758361E0,1.819593310E0,3.131615877E0,1.414494324E1,1.460127929E1
1.184793674E0,1.762132406E0,2.738966703E0,1.492066479E1,1.527197718E1
1.189828988E0,1.628057122E0,2.288856745E0,1.582088470E1,1.606828641E1
1.194864301E0,1.340752959E0,1.838746905E0,1.665406609E1,1.680882286E1
1.199899614E0,1.312022567E0,1.340752959E0,1.719036865E1,1.729242019E1
1.204904411E0,1.273715258E0,9.864110947E-1,1.756386375E1,1.763759245E1
1.209939725E0,1.254561663E0,5.746083856E-1,1.740105820E1,1.745568464E1
1.214975038E0,1.082179189E0,3.256114423E-1,1.707544708E1,1.711280303E1
1.220010351E0,9.481038451E-1,1.053448766E-1,1.640506935E1,1.643278123E1
1.225045665E0,6.416460276E-1,-1.915361360E-2,1.564850235E1,1.566166346E1
1.230050461E0,3.734954596E-1,-6.703764945E-2,1.473870564E1,1.474358968E1
1.235085774E0,2.394201756E-1,-1.149216816E-1,1.400129128E1,1.400380971E1
1.240121088E0,1.149216816E-1,-1.819593310E-1,1.328303146E1,1.328477478E1
1.245156402E0,7.661445439E-2,-1.532289088E-1,1.255519390E1,1.255636264E1
1.250161198E0,-9.576806799E-3,-1.149216816E-1,1.191354752E1,1.191410564E1
1.255196511E0,5.746084079E-2,-4.788403213E-2,1.128147888E1,1.128172684E1
1.260231824E0,7.661445439E-2,2.873041928E-1,1.079306126E1,1.079715633E1
1.265267138E0,2.298433632E-1,4.501099288E-1,1.045787334E1,1.047007841E1
1.270302451E0,4.596867263E-1,6.033388376E-1,1.012268448E1,1.015106254E1
1.275307248E0,4.501099288E-1,5.937620401E-1,9.509769440E0,9.538913308E0
1.280342561E0,4.213795066E-1,7.086837292E-1,8.925583839E0,8.963584115E0
1.285377875E0,4.501099288E-1,8.619126081E-1,7.910442352E0,7.969980583E0
1.290413188E0,6.607996821E-1,1.197100878E0,7.115567684E0,7.245758083E0
1.295417984E0,9.097966552E-1,1.503558636E0,6.330269337E0,6.569682519E0
1.300453298E0,1.283292055E0,1.666364431E0,5.765237808E0,6.136902794E0
1.305488612E0,1.886630893E0,1.896207690E0,5.257667065E0,5.898986582E0
1.310523925E0,2.355894566E0,2.154781580E0,5.046977043E0,5.972043213E0
1.315559239E0,1.972822189E0,2.154781580E0,5.295974255E0,6.048343108E0
1.320564034E0,1.972822189E0,2.212242365E0,4.941632271E0,5.762445069E0
1.325599348E0,1.580173135E0,1.934514999E0,4.932055473E0,5.528513960E0
1.330634661E0,1.532289028E0,2.097320795E0,4.778826714E0,5.439103689E0
1.335669975E0,1.407790542E0,2.116474390E0,5.046977043E0,5.650957028E0
1.340674771E0,1.273715258E0,1.838746905E0,5.161899090E0,5.625703774E0
1.345710085E0,1.005564690E0,1.273715258E0,4.903325081E0,5.164891843E0
1.350745398E0,7.469909191E-1,9.193734527E-1,4.692635536E0,4.839842069E0
1.355780712E0,7.852981687E-1,7.182605267E-1,4.769249916E0,4.886546445E0
1.360785508E0,7.374141216E-1,5.937620401E-1,4.989516258E0,5.078543634E0
1.365820822E0,7.278373241E-1,2.873041928E-1,5.133168221E0,5.192466355E0
1.370856135E0,5.937620401E-1,5.746084079E-2,5.286397457E0,5.319948607E0
1.375891449E0,5.554547906E-1,-9.576806426E-2,5.363011837E0,5.392550186E0
1.380896244E0,4.884171486E-1,-2.968810201E-1,5.363011837E0,5.393383503E0
1.385931558E0,5.458779931E-1,-3.064578176E-1,5.602431774E0,5.637299084E0
1.390966871E0,6.512228847E-1,-3.543418646E-1,5.851428986E0,5.898209099E0
1.396002184E0,1.015141487E0,-2.873041928E-1,6.244078159E0,6.332579885E0
1.401037498E0,1.359906554E0,-8.619125932E-2,6.904877663E0,7.038047336E0
1.406042295E0,1.733402014E0,8.619125932E-2,7.220912457E0,7.426552914E0
1.411077608E0,2.039859772E0,1.819593310E-1,7.431602001E0,7.708621497E0
1.416112921E0,2.269703150E0,3.926490843E-1,7.489062786E0,7.835291131E0
1.421148235E0,2.346317768E0,3.639186621E-1,7.393294811E0,7.765207790E0
1.426153032E0,2.346317768E0,2.681505978E-1,7.374141216E0,7.743065962E0
1.431188345E0,2.355894566E0,2.489969730E-1,7.144298077E0,7.526834242E0
1.436223658E0,2.279279947E0,2.106897533E-1,6.885724068E0,7.256218243E0
1.441258972E0,2.126051188E0,1.436520964E-1,6.426037312E0,6.770131838E0
1.446294285E0,1.896207690E0,2.106897533E-1,6.042964935E0,6.336988164E0
1.451299081E0,1.704671621E0,3.064578176E-1,5.650316238E0,5.909813476E0
1.456334394E0,1.493981838E0,2.298433632E-1,5.190629482E0,5.406241220E0
1.461369708E0,1.177947283E0,1.340752989E-1,4.759673119E0,4.905101852E0
1.466405021E0,9.959878922E-1,2.777273953E-1,4.414907932E0,4.534372772E0
1.471409818E0,9.193734527E-1,5.171475410E-1,3.792415380E0,3.936382037E0
1.476445131E0,1.063025594E0,8.331822157E-1,2.940079689E0,3.235472855E0
1.481480445E0,1.235408068E0,1.130063176E0,2.059013367E0,2.653829671E0
1.486515758E0,1.532289028E0,1.493981838E0,1.101332784E0,2.406828889E0
1.491551072E0,1.292868972E0,2.059013367E0,6.991068721E-1,2.529781935E0
1.496555868E0,1.465251446E0,2.365471363E0,9.289502501E-1,2.933490265E0
1.501591182E0,1.503558636E0,2.662352324E0,2.087743998E0,3.702361877E0
1.506626495E0,1.149216771E0,2.959233284E0,4.232948780E0,5.291088375E0
1.511661809E0,8.906430602E-1,3.026270866E0,6.665457726E0,7.374271971E0
1.516666604E0,8.331822157E-1,2.604891539E0,9.509769440E0,9.895219418E0
1.521701918E0,8.236053586E-1,2.039859772E0,1.204762268E1,1.224681860E1
1.526737231E0,6.512228847E-1,1.340752959E0,1.425028896E1,1.432803006E1
1.531772545E0,3.064578176E-1,9.002198577E-1,1.587834549E1,1.590679627E1
1.536777341E0,-7.661445439E-2,5.458779931E-1,1.687433434E1,1.688333533E1
1.541812655E0,-2.585737705E-1,3.064578176E-1,1.740105820E1,1.740567733E1
1.546847968E0,-4.309563041E-1,5.746084079E-2,1.704671669E1,1.705226011E1
1.551883282E0,-6.416460276E-1,7.661445439E-2,1.616564941E1,1.617855990E1
1.556888078E0,-5.554547906E-1,1.532289088E-1,1.504516315E1,1.505619286E1
1.561923392E0,-2.873042040E-2,4.213795066E-1,1.397256088E1,1.397894287E1
1.566958705E0,9.864110947E-1,7.948749661E-1,1.320641613E1,1.326703660E1
1.571994019E0,2.097320795E0,1.168370485E0,1.299572659E1,1.321562536E1
1.576998814E0,3.035847664E0,1.685518026E0,1.309149456E1,1.354417114E1
1.582034128E0,3.734954596E0,2.030282974E0,1.380017853E1,1.444011296E1
1.587069441E0,4.070142746E0,2.135627985E0,1.468124485E1,1.538395005E1
1.592104755E0,4.012681961E0,1.963245392E0,1.560061836E1,1.622760741E1
1.597109551E0,3.543418407E0,1.608903527E0,1.651041412E1,1.696284643E1
1.602144865E0,2.595314741E0,1.206677675E0,1.704671669E1,1.728531977E1
1.607180178E0,1.417367458E0,9.576807022E-1,1.704671669E1,1.713232713E1
1.612215492E0,3.256114423E-1,6.607996821E-1,1.668279839E1,1.669905509E1
1.617250805E0,-5.937620401E-1,3.734954596E-1,1.594538307E1,1.596080491E1
1.622255602E0,-1.331176162E0,2.968810201E-1,1.491108799E1,1.497333341E1
1.627290915E0,-1.838746905E0,3.926490843E-1,1.377144814E1,1.389920671E1
1.632326228E0,-1.991975784E0,8.714894056E-1,1.253604031E1,1.272319802E1
1.637361542E0,-1.781286120E0,1.407790542E0,1.145386124E1,1.167672007E1
1.642366338E0,-1.446097851E0,2.049436569E0,1.067813969E1,1.096877643E1
1.647401651E0,-1.101332784E0,2.509123325E0,1.028549004E1,1.064424441E1
1.652436965E0,-6.607996821E-1,2.940079689E0,1.021845245E1,1.065352033E1
1.657472279E0,-3.926490843E-1,3.217807055E0,1.032379818E1,1.082077929E1
1.662477075E0,-2.489969730E-1,3.342305660E0,1.049618053E1,1.101829444E1
1.667512388E0,-3.830722719E-2,3.428496838E0,1.035252857E1,1.090554473E1
1.672547701E0,1.340752989E-1,3.505111217E0,1.031422138E1,1.089435375E1
1.677583015E0,8.619125932E-2,3.533841610E0,1.042914295E1,1.101192482E1
1.682587812E0,6.703764945E-2,3.533841610E0,1.048660374E1,1.106622738E1
1.687623125E0,1.436520964E-1,3.476380825E0,1.035252857E1,1.092157074E1
1.692658438E0,3.160346150E-1,3.371036053E0,1.006522369E1,1.061943925E1
1.697693752E0,5.746083856E-1,3.246537447E0,9.979032516E0,1.050957992E1
1.702698548E0,6.320692301E-1,3.093308687E0,1.028549004E1,1.075915310E1
1.707733862E0,7.469909191E-1,2.853888512E0,1.068771648E1,1.108737835E1
1.712769175E0,6.224924326E-1,2.681505919E0,1.084094524E1,1.118499283E1
1.717804489E0,2.489969730E-1,2.346317768E0,1.105163479E1,1.130070078E1
1.722809285E0,-9.576806799E-3,2.097320795E0,1.124317074E1,1.143712090E1
1.727844598E0,-4.022258818E-1,1.838746905E0,1.124317074E1,1.139963438E1
1.732879911E0,-6.129156351E-1,1.742978811E0,1.126232433E1,1.141286949E1
1.737915225E0,-4.979939461E-1,1.838746905E0,1.127190113E1,1.143174279E1
1.742920022E0,-4.501099288E-1,2.020706177E0,1.112824917E1,1.131917762E1
1.747955335E0,-3.447650373E-1,2.202665567E0,1.079306126E1,1.102092418E1
1.752990648E0,-2.011129409E-1,2.250549555E0,1.061110210E1,1.084900491E1
1.758025962E0,-1.628057212E-1,2.327163935E0,1.010353088E1,1.036935552E1
1.763030758E0,-2.489969730E-1,2.317587137E0,9.490615845E0,9.772665897E0
1.768066072E0,-2.968810201E-1,2.202665567E0,8.992621422E0,9.263212940E0
1.773101385E0,-3.351882398E-1,2.059013367E0,8.293514252E0,8.551857450E0
1.778136699E0,-4.118026793E-1,1.982398987E0,7.728483200E0,7.989301582E0
1.783141495E0,-4.788403511E-1,1.972822189E0,6.981492043E0,7.270663423E0
1.788176808E0,-4.405331016E-1,1.982398987E0,6.378153324E0,6.693639890E0
1.793212121E0,-3.734954596E-1,1.924938202E0,5.861005783E0,6.180313481E0
1.798247435E0,-4.118026793E-1,1.838746905E0,5.554547787E0,5.865455885E0
1.803252232E0,-3.926490843E-1,1.666364431E0,5.248090267E0,5.520271295E0
1.808287545E0,-5.171475410E-1,1.561019540E0,5.295974255E0,5.545409533E0
1.813322858E0,-3.926490843E-1,1.484405041E0,5.410895824E0,5.624537781E0
1.818358172E0,-3.064578176E-1,1.244984865E0,5.602431774E0,5.747272874E0
1.823362969E0,-2.585737705E-1,1.110909581E0,6.138733387E0,6.243799171E0
1.828398282E0,-2.106897533E-1,9.481038451E-1,6.397306919E0,6.470612559E0
1.833433595E0,-9.576806426E-2,8.044517636E-1,6.588842869E0,6.638461005E0
1.838468909E0,-5.746084079E-2,7.086837292E-1,6.780379295E0,6.817556583E0
1.843504222E0,0.000000000E0,5.937620401E-1,6.809109688E0,6.834949020E0
1.848509018E0,-1.436520964E-1,4.309563041E-1,6.943184853E0,6.958029546E0
1.853544331E0,-2.394201756E-1,3.926490843E-1,7.077260017E0,7.092186171E0
1.858579645E0,-4.692635238E-1,4.022258818E-1,7.307103634E0,7.333195581E0
1.863614958E0,-5.841852427E-1,4.501099288E-1,7.115567684E0,7.153682605E0
1.868619755E0,-8.619126081E-1,6.991068721E-1,6.713341713E0,6.804454476E0
1.873655068E0,-8.810662031E-1,8.236053586E-1,6.291962147E0,6.406511617E0
1.878690382E0,-8.044517636E-1,1.283292055E0,5.755661011E0,5.951606070E0
1.883725695E0,-9.289502501E-1,1.580173135E0,5.075707436E0,5.396545346E0
1.888761008E0,-9.864110947E-1,2.078166962E0,4.797980309E0,5.320939749E0
1.893765805E0,-1.130063176E0,2.355894566E0,4.453215122E0,5.163177986E0
1.898801119E0,-1.426944256E0,2.604891539E0,4.453215122E0,5.352826801E0
1.903836432E0,-1.656787634E0,2.681505919E0,4.453215122E0,5.455872449E0
1.908871745E0,-2.001552582E0,2.643198729E0,4.721365929E0,5.769229454E0
1.913876541E0,-2.145204782E0,2.537853718E0,5.171475887E0,6.147094265E0
1.918911855E0,-2.221819162E0,2.384624958E0,5.985504150E0,6.815363271E0
1.923947168E0,-2.097320795E0,2.231395960E0,7.010222435E0,7.649908564E0
1.928982481E0,-1.838746905E0,2.116474390E0,8.494627953E0,8.945342815E0
1.934017795E0,-1.752555609E0,1.953668594E0,1.018014526E1,1.051302191E1
1.939022592E0,-1.589749932E0,1.551442742E0,1.212423706E1,1.232604575E1
1.944057905E0,-1.350329757E0,1.063025594E0,1.398213768E1,1.408735561E1
1.949093218E0,-1.034295082E0,6.416460276E-1,1.580173111E1,1.584853880E1
1.954128532E0,-6.799532771E-1,2.298433632E-1,1.727655983E1,1.729146275E1
1.959133329E0,-2.489969730E-1,-2.873042040E-2,1.823423958E1,1.823596222E1
1.964168642E0,1.436520964E-1,-2.873041928E-1,1.864604378E1,1.864881037E1
1.969203955E0,2.681505978E-1,-5.458779931E-1,1.817677879E1,1.818695067E1
1.974239269E0,2.968810201E-1,-4.309563041E-1,1.705629349E1,1.706431977E1
1.979274582E0,2.394201756E-1,-7.661445439E-2,1.561977196E1,1.562179464E1
1.984279378E0,3.064578176E-1,4.692635238E-1,1.422155857E1,1.423259825E1
1.989314691E0,3.160346150E-1,9.097966552E-1,1.318726254E1,1.322238636E1
1.994350005E0,2.585737705E-1,1.158793569E0,1.241154194E1,1.246820100E1
1.999385318E0,1.628057212E-1,1.206677675E0,1.202846909E1,1.208993984E1
2.004390115E0,-9.576806426E-2,1.110909581E0,1.204762268E1,1.209911170E1
2.009425428E0,-1.436520964E-1,1.034295082E0,1.234450436E1,1.238859112E1
2.014460742E0,-3.256114423E-1,9.481038451E-1,1.261265469E1,1.265242988E1
2.019496055E0,-3.926490843E-1,7.565677166E-1,1.294784260E1,1.297586976E1
2.024531369E0,-3.447650373E-1,6.224924326E-1,1.314895535E1,1.316819602E1
2.029536165E0,-2.681505978E-1,5.075707436E-1,1.358948898E1,1.360160813E1
2.034571479E0,-4.788403213E-2,5.171475410E-1,1.384806252E1,1.385779816E1
2.039606792E0,2.873041928E-1,5.363011956E-1,1.395340729E1,1.396666523E1
2.044642106E0,5.075707436E-1,5.650315881E-1,1.389594650E1,1.391668847E1
2.049646901E0,7.757213712E-1,5.554547906E-1,1.388636971E1,1.391910691E1
2.054682215E0,1.024718285E0,5.363011956E-1,1.367568016E1,1.372449979E1
2.059717529E0,1.197100878E0,4.884171486E-1,1.340752983E1,1.346972375E1
2.064752843E0,1.197100878E0,4.596867263E-1,1.293826580E1,1.300165698E1
2.069788156E0,9.768342972E-1,3.734954596E-1,1.245942593E1,1.250323952E1
2.074792952E0,7.661445141E-1,3.256114423E-1,1.204762268E1,1.207634930E1
2.079828265E0,5.075707436E-1,3.064578176E-1,1.160709000E1,1.162222365E1
2.084863579E0,2.106897533E-1,2.681505978E-1,1.114740276E1,1.115261778E1
2.089898892E0,-7.661445439E-2,2.873041928E-1,1.064940929E1,1.065355958E1
2.094903689E0,-2.968810201E-1,3.160346150E-1,1.040998936E1,1.041901601E1
2.099939002E0,-3.351882398E-1,4.022258818E-1,1.000776291E1,1.002144976E1
2.104974315E0,-3.734954596E-1,4.979939461E-1,9.548076630E0,9.568346992E0
2.110009629E0,-3.160346150E-1,4.692635238E-1,9.155426979E0,9.172891000E0
2.115014425E0,-2.681505978E-1,6.033388376E-1,8.599972725E0,8.625279901E0
2.120049739E0,-2.202665508E-1,7.278373241E-1,8.169015884E0,8.204333309E0
2.125085052E0,-2.298433632E-1,9.481038451E-1,7.402871609E0,7.466875982E0
2.130120366E0,-4.788403213E-2,1.168370485E0,6.971915245E0,7.069298739E0
2.135155679E0,2.106897533E-1,1.292868972E0,6.426037312E0,6.558189985E0
2.140160475E0,4.596867263E-1,1.714248419E0,6.320692539E0,6.565143845E0
2.145195788E0,6.416460276E-1,1.637633920E0,6.138733387E0,6.385734263E0
2.150231102E0,1.053448796E0,1.656787634E0,5.631162167E0,5.963613584E0
2.155266415E0,1.244984865E0,1.417367458E0,5.315127850E0,5.639991302E0
2.160271212E0,1.551442742E0,1.417367458E0,5.430049419E0,5.822485877E0
2.165306525E0,1.771709204E0,1.628057122E0,5.621585369E0,6.114879031E0
2.170341839E0,1.800439715E0,1.618480325E0,5.803544998E0,6.288258604E0
2.175377152E0,1.742978811E0,1.580173135E0,5.975927353E0,6.422353930E0
2.180381949E0,1.829170108E0,1.331176162E0,6.071695328E0,6.479458111E0
2.185417262E0,1.857900500E0,1.101332784E0,6.071695328E0,6.444393868E0
2.190452576E0,1.838746905E0,1.015141487E0,6.196194172E0,6.542501405E0
2.195487889E0,1.810016513E0,8.619126081E-1,6.502651691E0,6.804669877E0
2.200523203E0,1.810016513E0,7.086837292E-1,6.502651691E0,6.786963343E0
2.205527998E0,1.752555609E0,5.746083856E-1,6.684611320E0,6.934382054E0
2.210563312E0,1.513135433E0,4.884171486E-1,6.569689274E0,6.759359977E0
2.215598625E0,1.522712231E0,3.351882398E-1,6.263231754E0,6.454384223E0
2.220633939E0,1.388636947E0,3.351882398E-1,6.263231754E0,6.424074699E0
2.225638735E0,1.254561663E0,1.723825186E-1,6.291962147E0,6.418132778E0
2.230674049E0,1.158793569E0,8.619125932E-2,6.224924564E0,6.332449550E0
2.235709362E0,1.024718285E0,1.053448766E-1,6.119579315E0,6.205674508E0
2.240744676E0,9.672574997E-1,2.873042040E-2,6.110002518E0,6.186157392E0
2.245779989E0,9.193734527E-1,-1.819593310E-1,6.014234543E0,6.086819685E0
2.250784786E0,8.523358107E-1,-2.968810201E-1,5.736507416E0,5.807076029E0
2.255820099E0,6.703764796E-1,-3.160346150E-1,5.305551052E0,5.357065845E0
2.260855413E0,6.895300746E-1,-2.298433632E-1,5.123591423E0,5.174888285E0
2.265890726E0,5.937620401E-1,-3.830722719E-2,4.893748283E0,4.929786310E0
2.270895522E0,7.565677166E-1,2.011129409E-1,4.884171486E0,4.946511117E0
2.275930835E0,1.312022567E0,2.681505978E-1,5.056553841E0,5.230874181E0
2.280966149E0,1.781286120E0,6.224924326E-1,5.276820660E0,5.604044374E0
2.286001462E0,2.384624958E0,9.672574997E-1,5.477933407E0,6.052253933E0
2.291006259E0,2.767697096E0,1.149216771E0,5.602431774E0,6.353588607E0
2.296041572E0,3.198653460E0,1.312022567E0,5.544970989E0,6.534484711E0
2.301076886E0,3.677493811E0,1.417367458E0,5.583278179E0,6.834170503E0
2.306112199E0,4.204218388E0,1.561019540E0,5.793968201E0,7.326820713E0
2.311147512E0,4.577713490E0,1.790862918E0,6.272808552E0,7.969364963E0
2.316152309E0,4.874594688E0,1.886630893E0,6.991068840E0,8.729037348E0
2.321187623E0,4.826710701E0,1.781286120E0,7.843404770E0,9.380251320E0
2.326222936E0,4.721365929E0,1.580173135E0,9.126696587E0,1.039638562E1
2.331258249E0,4.453215122E0,1.292868972E0,1.010353088E1,1.111683280E1
2.336263045E0,4.146757126E0,8.714894056E-1,1.195185471E1,1.268076967E1
2.341298358E0,3.773261786E0,1.819593310E-1,1.392467690E1,1.442800195E1
2.346333672E0,3.418920040E0,-5.363011956E-1,1.591665268E1,1.628853786E1
2.351368985E0,3.160346270E0,-1.082179189E0,1.763090134E1,1.794456972E1
2.356373782E0,2.911349297E0,-1.771709204E0,1.917276764E1,1.947331320E1
2.361409095E0,2.719813108E0,-2.106897593E0,2.008256340E1,2.037512585E1
2.366444409E0,2.442085743E0,-2.308010340E0,2.047521210E1,2.074909648E1
2.371479722E0,2.240972757E0,-2.355894566E0,2.049436569E1,2.075069211E1
2.376484519E0,1.972822189E0,-2.193088770E0,2.008256340E1,2.029805455E1
2.381519832E0,1.771709204E0,-1.905784607E0,1.960372353E1,1.977566546E1
2.386555146E0,1.733402014E0,-1.742978811E0,1.897165489E1,1.913024691E1
2.391590459E0,1.819593310E0,-1.302445769E0,1.825339317E1,1.839004206E1
2.396595255E0,1.781286120E0,-1.015141487E0,1.731486702E1,1.743582841E1
2.401630568E0,1.704671621E0,-6.224924326E-1,1.643379974E1,1.653369820E1
2.406665882E0,1.522712231E0,-1.532289088E-1,1.562934875E1,1.570409737E1
2.411701196E0,1.340752959E0,2.106897533E-1,1.471955204E1,1.478198975E1
2.416705992E0,1.177947283E0,6.512228847E-1,1.380017853E1,1.386566185E1
2.421741305E0,9.864110947E-1,1.024718285E0,1.272757626E1,1.280680490E1
2.426776619E0,8.810662031E-1,1.503558636E0,1.156878281E1,1.169930348E1
2.431811932E0,5.554547906E-1,1.963245392E0,1.065898609E1,1.085250418E1
2.436847246E0,4.979939461E-1,2.394201756E0,9.998186111E0,1.029290656E1
2.441852042E0,5.171475410E-1,2.633621931E0,9.701305389E0,1.006572066E1
2.446887356E0,4.884171486E-1,3.026270866E0,9.835380554E0,1.030201812E1
2.451922669E0,6.416460276E-1,3.102885485E0,9.873687744E0,1.036963440E1
2.456957983E0,7.565677166E-1,3.246537447E0,9.950302124E0,1.049385117E1
2.461962778E0,8.140285611E-1,3.246537447E0,1.006522369E1,1.060713797E1
2.466998092E0,8.044517636E-1,3.323152065E0,1.019929886E1,1.075714551E1
2.472033406E0,7.565677166E-1,3.313575268E0,1.040998936E1,1.095080153E1
2.477068720E0,5.841852427E-1,3.409343243E0,1.034295177E1,1.090603251E1
2.482073515E0,5.267243981E-1,3.361459255E0,1.019929886E1,1.075186236E1
2.487108829E0,2.968810201E-1,3.380612850E0,9.979032516E0,1.054029276E1
2.492144142E0,2.298433632E-1,3.284844637E0,9.758766174E0,1.029934704E1
2.497179456E0,2.106897533E-1,3.198653460E0,9.490615845E0,1.001736309E1
2.502184252E0,-1.915361360E-2,3.131615877E0,9.126696587E0,9.649040131E0
2.507219566E0,-2.873042040E-2,3.074155092E0,8.705317497E0,9.232215752E0
2.512254879E0,-1.532289088E-1,3.083731890E0,8.408436775E0,8.957381898E0
2.517290193E0,-2.106897533E-1,3.074155092E0,8.178592682E0,8.739805373E0
2.522294988E0,-1.053448766E-1,3.122039080E0,8.073247910E0,8.656532641E0
2.527330303E0,-9.576806426E-2,3.189076662E0,8.063671112E0,8.671918662E0
2.532365616E0,-1.053448766E-1,3.093308687E0,8.101978302E0,8.673044943E0
2.537400930E0,-8.619125932E-2,3.074155092E0,8.063671112E0,8.630217278E0
2.542436243E0,-9.576806426E-2,2.949656487E0,7.900865555E0,8.434057234E0
2.547441039E0,-2.106897533E-1,2.949656487E0,7.527369976E0,8.087407639E0
2.552476352E0,-3.447650373E-1,2.700659513E0,7.115567684E0,7.618643462E0
2.557511666E0,-3.926490843E-1,2.489969730E0,6.607996464E0,7.072463491E0
2.562546979E0,-4.596867263E-1,2.422932148E0,6.148310184E0,6.624472070E0
2.567551776E0,-5.937620401E-1,2.308010340E0,5.640739441E0,6.123512597E0
2.572587089E0,-6.512228847E-1,2.126051188E0,5.315127850E0,5.761490168E0
2.577622402E0,-7.948749661E-1,2.001552582E0,5.190629482E0,5.619668440E0
2.582657716E0,-7.469909191E-1,1.714248419E0,5.267243862E0,5.589320261E0
2.587662513E0,-7.757213712E-1,1.484405041E0,5.908889771E0,6.141675691E0
2.592697826E0,-7.374141216E-1,1.244984865E0,6.272808552E0,6.437537886E0
2.597733139E0,-8.044517636E-1,9.768342972E-1,6.579266071E0,6.699857455E0
2.602768453E0,-1.120486379E0,6.129156351E-1,6.847416878E0,6.965505954E0
2.607773249E0,-1.254561663E0,3.639186621E-1,7.173028469E0,7.291001246E0
2.612808562E0,-1.340752959E0,1.819593310E-1,7.450755596E0,7.572614255E0
2.617843875E0,-1.426944256E0,9.576806799E-3,7.584830761E0,7.717896041E0
2.622879189E0,-1.426944256E0,-3.830722719E-2,7.527369976E0,7.661523093E0
2.627914502E0,-1.503558636E0,-1.723825186E-1,7.249642849E0,7.405925043E0
2.632919299E0,-1.762132406E0,-2.489969730E-1,6.866570473E0,7.093440644E0
2.637954612E0,-2.030282974E0,-4.022258818E-1,6.598419666E0,6.915415874E0
2.642989926E0,-2.346317768E0,-3.351882398E-1,6.349422932E0,6.777368943E0
2.648025239E0,-2.604891539E0,-1.819593310E-1,6.263231754E0,6.785767542E0
2.653030036E0,-2.662352324E0,3.830722719E-2,6.234501362E0,6.779276847E0
2.658065349E0,-2.719813108E0,2.106897533E-1,6.349422932E0,6.910639991E0
2.663100663E0,-2.557007313E0,5.746083856E-1,6.196194172E0,6.727650661E0
2.668135976E0,-2.135627985E0,9.864110947E-1,6.426037312E0,6.843089161E0
2.673140772E0,-1.455674648E0,1.628057122E0,6.952761650E0,7.287691901E0
2.678176085E0,-9.097966552E-1,2.269703150E0,7.642292023E0,8.023958481E0
2.683211399E0,-4.405331016E-1,2.700659513E0,8.216899872E0,8.660547022E0
2.688216196E0,-1.628057212E-1,2.681505919E0,9.155426979E0,9.541426668E0
2.693251509E0,-1.149216816E-1,2.403778553E0,1.034295177E1,1.061922830E1
2.698286822E0,-7.661445439E-2,1.915361404E0,1.166455078E1,1.182100774E1
2.703322136E0,-1.149216816E-1,1.379060149E0,1.284249783E1,1.291684034E1
2.708326933E0,-5.746084079E-2,8.236053586E-1,1.396298409E1,1.398737116E1
2.713362246E0,-2.489969730E-1,3.447650373E-1,1.490151119E1,1.490757855E1
2.718397559E0,-3.639186621E-1,-1.053448766E-1,1.571553993E1,1.572010591E1
2.723432873E0,-4.022258818E-1,-5.171475410E-1,1.627099419E1,1.628417880E1
2.728437669E0,-4.596867263E-1,-7.374141216E-1,1.653914452E1,1.656195619E1
2.733472982E0,-3.926490843E-1,-8.044517636E-1,1.692221832E1,1.694587823E1
2.738508295E0,-2.873041928E-1,-7.852981687E-1,1.699883270E1,1.701938748E1
2.743513092E0,-2.489969730E-1,-6.991068721E-1,1.712333107E1,1.713940538E1
2.748548406E0,-1.723825186E-1,-7.757213712E-1,1.708502388E1,1.710349381E1
2.753583719E0,-2.202665508E-1,-7.182605267E-1,1.681687355E1,1.683364641E1
2.758619032E0,-1.436520964E-1,-7.086837292E-1,1.663491249E1,1.665062107E1
2.763654346E0,-1.244984865E-1,-6.224924326E-1,1.632845497E1,1.634079063E1
2.768659143E0,-1.723825186E-1,-6.703764796E-1,1.619437981E1,1.620916585E1
2.773694456E0,-2.873041928E-1,-6.703764796E-1,1.598369026E1,1.600032196E1
2.778729769E0,-4.979939461E-1,-8.523358107E-1,1.569638634E1,1.572739706E1
2.783765083E0,-6.703764796E-1,-9.002198577E-1,1.527500725E1,1.531618904E1
2.788769879E0,-6.991068721E-1,-8.140285611E-1,1.473870564E1,1.477771419E1
2.793805192E0,-9.193734527E-1,-8.427590132E-1,1.423113537E1,1.428568179E1
2.798840505E0,-9.002198577E-1,-7.565677166E-1,1.342668343E1,1.347807918E1
2.803875819E0,-8.236053586E-1,-6.991068721E-1,1.268926907E1,1.273517278E1
2.808911132E0,-6.416460276E-1,-5.075707436E-1,1.202846909E1,1.205626004E1
2.813915929E0,-4.022258818E-1,-2.394201756E-1,1.173158836E1,1.174092301E1
2.818951242E0,0.000000000E0,-1.149216816E-1,1.149216843E1,1.149274302E1
2.823986556E0,2.298433632E-1,-6.703764945E-2,1.119528675E1,1.119784655E1
2.829021869E0,5.841852427E-1,-9.576806426E-2,1.091755962E1,1.093359740E1
2.834026666E0,8.236053586E-1,-8.619125932E-2,1.092713642E1,1.095847002E1
2.839061979E0,1.005564690E0,-9.576806426E-2,1.122401714E1,1.126937854E1
2.844097293E0,1.206677675E0,-1.436520964E-1,1.150174522E1,1.156576198E1
2.849132606E0,1.225831270E0,-1.915361285E-1,1.153047562E1,1.159703481E1
2.854137402E0,1.168370485E0,-9.576806426E-2,1.131978607E1,1.138032591E1
2.859172715E0,1.072602391E0,1.915361360E-2,1.118570995E1,1.123703475E1
2.864208029E0,1.005564690E0,8.619125932E-2,1.091755962E1,1.096410951E1
2.869243342E0,9.481038451E-1,2.106897533E-1,1.048660374E1,1.053148370E1
2.874248139E0,8.523358107E-1,2.394201756E-1,9.950302124E0,9.989610138E0
2.879283452E0,8.427590132E-1,2.777273953E-1,9.308655739E0,9.350852738E0
2.884318766E0,6.895300746E-1,4.118026793E-1,8.638279915E0,8.675535318E0
2.889354079E0,6.512228847E-1,4.501099288E-1,7.996633530E0,8.035722618E0
2.894358876E0,4.692635238E-1,4.692635238E-1,7.479485989E0,7.508869899E0
2.899394189E0,4.022258818E-1,6.224924326E-1,6.943184853E0,6.982628329E0
2.904429503E0,3.926490843E-1,7.278373241E-1,6.454767704E0,6.507529991E0
2.909464816E0,6.895300746E-1,7.374141216E-1,6.167463779E0,6.249547246E0
2.914469612E0,9.289502501E-1,9.385270476E-1,5.908889771E0,6.054647794E0
2.919504925E0,9.864110947E-1,1.082179189E0,5.947196960E0,6.124807779E0
2.924540239E0,1.005564690E0,1.063025594E0,5.774814606E0,5.957320496E0
2.929575552E0,9.959878922E-1,9.576807022E-1,5.324704647E0,5.501056606E0
2.934580349E0,1.043871999E0,8.236053586E-1,4.778826714E0,4.960360803E0
2.939615662E0,9.289502501E-1,6.416460276E-1,4.529829502E0,4.668405885E0
2.944650976E0,9.097966552E-1,5.363011956E-1,4.501099110E0,4.623336687E0
2.949686289E0,9.959878922E-1,3.256114423E-1,4.788403511E0,4.901716320E0
2.954691086E0,1.149216771E0,8.619125932E-2,5.286397457E0,5.410556921E0
2.959726399E0,1.867477298E0,6.129156351E-1,5.401319027E0,5.747815608E0
2.964761713E0,1.398213744E0,0.000000000E0,6.033388138E0,6.193284597E0
2.969766508E0,1.417367458E0,-2.585737705E-1,6.062118530E0,6.230976808E0
2.974801822E0,1.417367458E0,-5.841852427E-1,6.052541733E0,6.243673945E0
2.979837135E0,1.513135433E0,-5.937620401E-1,5.956773758E0,6.174567661E0
2.984872449E0,1.599326730E0,-5.267243981E-1,6.042964935E0,6.273173821E0
2.989877245E0,1.675941229E0,-3.926490843E-1,6.291962147E0,6.523169472E0
2.994912559E0,1.714248419E0,-4.788403511E-1,6.301538944E0,6.548078252E0
2.999947872E0,1.589749932E0,-7.086837292E-1,6.157886982E0,6.399149128E0
3.004983186E0,1.417367458E0,-8.140285611E-1,6.473921299E0,6.677067470E0
3.009987982E0,1.312022567E0,-7.278373241E-1,6.435614109E0,6.608197889E0
3.015023296E0,1.426944256E0,-3.830722570E-1,6.215347767E0,6.388541471E0
3.020058609E0,1.685518026E0,-3.830722719E-2,5.851428986E0,6.089471211E0
3.025093923E0,2.039859772E0,2.106897533E-1,5.525817394E0,5.894071253E0
3.030098718E0,2.317587137E0,5.363011956E-1,5.238513470E0,5.753334032E0
3.035134032E0,2.528276920E0,7.469909191E-1,4.999093056E0,5.651646751E0
3.040169345E0,2.614468336E0,8.236053586E-1,4.587290287E0,5.343875246E0
3.045204659E0,2.614468336E0,1.015141487E0,4.031835556E0,4.911380139E0
3.050209455E0,2.681505919E0,1.407790542E0,3.438073635E0,4.581778969E0
3.055244769E0,2.691082716E0,1.810016513E0,2.863465309E0,4.326374873E0
3.060280082E0,2.604891539E0,2.087743998E0,2.614468336E0,4.240233438E0
3.065315396E0,2.432508945E0,2.173935175E0,2.652775526E0,4.204796298E0
3.070350709E0,2.240972757E0,2.202665567E0,3.083731890E0,4.402623862E0
3.075355506E0,1.963245392E0,2.068590164E0,3.926490784E0,4.852909190E0
3.080390819E0,1.848323703E0,1.991975784E0,5.027823448E0,5.715179495E0
3.085426132E0,1.561019540E0,1.877054095E0,6.473921299E0,6.918942915E0
3.090461446E0,1.359906554E0,1.695094824E0,8.054094315E0,8.342129676E0
3.095466242E0,1.264138460E0,1.522712231E0,9.710882187E0,9.910496023E0
3.100501555E0,1.158793569E0,1.292868972E0,1.126232433E1,1.139536143E1
3.105536868E0,1.168370485E0,1.110909581E0,1.297657299E1,1.307633956E1
3.110572183E0,1.264138460E0,1.024718285E0,1.416409683E1,1.425726947E1
3.115607496E0,1.484405041E0,9.768342972E-1,1.494939518E1,1.505463649E1
3.120612292E0,1.647210717E0,9.002198577E-1,1.539950562E1,1.551349323E1
3.125647605E0,1.829170108E0,9.002198577E-1,1.584961510E1,1.598019267E1
3.130682919E0,1.886630893E0,8.619126081E-1,1.591665268E1,1.605123366E1
3.135718232E0,1.905784607E0,7.948749661E-1,1.584003830E1,1.597406193E1
3.140753546E0,1.810016513E0,7.469909191E-1,1.561977196E1,1.574202754E1
3.145758342E0,1.896207690E0,6.224924326E-1,1.517923832E1,1.530987839E1
3.150793656E0,2.039859772E0,8.810662031E-1,1.531331444E1,1.547368426E1
3.155828969E0,2.451662540E0,9.481038451E-1,1.450886250E1,1.474505480E1
3.160864283E0,2.738966703E0,1.024718285E0,1.402044487E1,1.432218072E1
3.165869078E0,2.940079689E0,1.130063176E0,1.380017853E1,1.415507113E1
3.170904393E0,3.131615877E0,1.225831270E0,1.374271774E1,1.414821442E1
3.175939706E0,3.284844637E0,1.340752959E0,1.373314095E1,1.418403973E1
3.180975020E0,3.112462282E0,1.369483352E0,1.369483376E1,1.411068311E1
3.186010333E0,2.863465309E0,1.082179189E0,1.336922264E1,1.371519812E1
3.191015129E0,2.537853718E0,9.289502501E-1,1.316810894E1,1.344257204E1
3.196050442E0,2.145204782E0,7.948749661E-1,1.306276417E1,1.326158126E1
3.201085756E0,1.647210717E0,5.650315881E-1,1.286165142E1,1.297900771E1
3.206121069E0,1.120486379E0,4.213795066E-1,1.275630665E1,1.281235379E1
3.211156382E0,6.320692301E-1,3.064578176E-1,1.261265469E1,1.263220037E1
3.216161179E0,1.628057212E-1,2.394201756E-1,1.228704357E1,1.229045432E1
3.221196493E0,-2.106897533E-1,3.160346150E-1,1.221042824E1,1.221633438E1
3.226231806E0,-3.064578176E-1,3.830722570E-1,1.227746677E1,1.228726378E1
3.231267119E0,-3.447650373E-1,6.033388376E-1,1.219127464E1,1.221106294E1
3.236271916E0,-3.351882398E-1,8.714894056E-1,1.224873543E1,1.228427306E1
3.241307230E0,-1.149216816E-1,1.082179189E0,1.200931549E1,1.205852302E1
3.246342543E0,1.915361285E-1,1.312022567E0,1.199973869E1,1.207277176E1
3.251377856E0,3.447650373E-1,1.436521053E0,1.170285797E1,1.179573399E1
3.256413170E0,4.692635238E-1,1.589749932E0,1.155920601E1,1.167744650E1
3.261417966E0,5.841852427E-1,1.695094824E0,1.124317074E1,1.138523197E1
3.266453279E0,6.129156351E-1,1.733402014E0,1.102290440E1,1.117518543E1
3.271488592E0,6.799532771E-1,1.877054095E0,1.066856289E1,1.085375063E1
3.276523906E0,6.895300746E-1,2.001552582E0,1.047702694E1,1.068876784E1
3.281559219E0,6.991068721E-1,2.068590164E0,1.040041256E1,1.062715376E1
3.286564016E0,6.895300746E-1,2.212242365E0,1.007480049E1,1.033784663E1
3.291599329E0,8.140285611E-1,2.288856745E0,9.873687744E0,1.016814719E1
3.296634643E0,6.895300746E-1,2.317587137E0,9.624691010E0,9.923776443E0
3.301669956E0,5.746083856E-1,2.403778553E0,9.222464561E0,9.547888705E0
3.306674753E0,3.447650373E-1,2.375048161E0,8.801085472E0,9.122435102E0
3.311710066E0,1.244984865E-1,2.413355350E0,8.360552788E0,8.702794197E0
3.316745380E0,-1.340752989E-1,2.221819162E0,7.929595947E0,8.236076036E0
3.321780693E0,-2.394201756E-1,2.164358377E0,7.623138428E0,7.928052011E0
3.326785489E0,-4.022258818E-1,2.097320795E0,7.498639584E0,7.796802921E0
3.331820802E0,-4.596867263E-1,2.106897593E0,7.307103634E0,7.618667395E0
3.336856116E0,-4.788403511E-1,1.991975784E0,7.067683220E0,7.358627705E0
3.341891429E0,-4.309563041E-1,2.001552582E0,7.125144482E0,7.413475565E0
3.346896226E0,-3.830722570E-1,1.991975784E0,6.962338448E0,7.251818292E0
3.351931539E0,-3.447650373E-1,1.867477298E0,6.789956093E0,7.050520416E0
3.356966853E0,-2.968810201E-1,1.733402014E0,6.684611320E0,6.912079961E0
3.362002166E0,-2.298433632E-1,1.570596337E0,6.493074894E0,6.684281742E0
3.367037479E0,-4.405331016E-1,1.369483352E0,6.282385349E0,6.444991834E0
3.372042276E0,-4.884171486E-1,1.120486379E0,6.445190907E0,6.560070644E0
3.377077590E0,-5.171475410E-1,1.024718285E0,6.435614109E0,6.537172026E0
3.382112903E0,-4.884171486E-1,8.906430602E-1,6.560112476E0,6.638288339E0
3.387148216E0,-3.830722570E-1,8.523358107E-1,6.627150536E0,6.692708339E0
3.392183530E0,-1.723825186E-1,8.523358107E-1,6.703764915E0,6.759930185E0
3.397188326E0,-1.053448766E-1,9.385270476E-1,6.617573261E0,6.684624629E0
3.402223639E0,8.619125932E-2,9.768342972E-1,6.464344501E0,6.538301309E0
3.407258953E0,1.915361285E-1,1.005564690E0,6.397306919E0,6.478686769E0
3.412294267E0,7.661445439E-2,9.864110947E-1,6.311115742E0,6.388196813E0
3.417299063E0,-4.788403213E-2,1.034295082E0,6.387730122E0,6.471101553E0
3.422334376E0,-2.585737705E-1,9.385270476E-1,6.588842869E0,6.660371143E0
3.427369689E0,-5.458779931E-1,9.959878922E-1,6.866570473E0,6.959868154E0
3.432405003E0,-8.619126081E-1,9.002198577E-1,6.962338448E0,7.073008256E0
3.437409800E0,-1.005564690E0,8.619126081E-1,6.924031258E0,7.049557613E0
3.442445113E0,-1.302445769E0,1.082179189E0,6.943184853E0,7.146698026E0
3.447480426E0,-1.359906554E0,1.053448796E0,6.809109688E0,7.023038868E0
3.452515740E0,-1.379060149E0,1.197100878E0,6.560112476E0,6.809547203E0
3.457551053E0,-1.465251446E0,1.273715258E0,6.713341713E0,6.988438260E0
3.462555850E0,-1.379060149E0,1.388636947E0,6.876147270E0,7.149232179E0
3.467591163E0,-1.244984865E0,1.522712231E0,6.847416878E0,7.124307528E0
3.472626477E0,-1.149216771E0,1.580173135E0,6.799532890E0,7.074693905E0
3.477661790E0,-1.101332784E0,1.829170108E0,7.383718014E0,7.686227221E0
3.482666586E0,-8.906430602E-1,1.934514999E0,8.197746277E0,8.469866431E0
3.487701899E0,-7.565677166E-1,1.963245392E0,9.509769440E0,9.739735211E0
3.492737213E0,-5.841852427E-1,1.857900500E0,1.108994198E1,1.125965718E1
3.497772526E0,-3.830722570E-1,1.551442742E0,1.284249783E1,1.294154045E1
3.502777323E0,-1.628057212E-1,1.235408068E0,1.448013210E1,1.453364939E1
3.507812636E0,1.723825186E-1,1.063025594E0,1.599326706E1,1.602948316E1
3.512847950E0,5.554547906E-1,1.034295082E0,1.723825264E1,1.727818423E1
3.517883263E0,9.385270476E-1,9.002198577E-1,1.801397324E1,1.806085437E1
3.522888060E0,1.206677675E0,6.703764796E-1,1.815762520E1,1.821002000E1
3.527923373E0,1.522712231E0,4.405331016E-1,1.784159088E1,1.791187001E1
3.532958687E0,1.666364431E0,3.639186621E-1,1.703713989E1,1.712230542E1
3.537994000E0,1.723825216E0,2.968810201E-1,1.622311020E1,1.631713873E1
3.542998796E0,1.771709204E0,2.968810201E-1,1.520796967E1,1.531370083E1
3.548034109E0,1.637633920E0,3.639186621E-1,1.373314095E1,1.383522468E1
3.553069423E0,1.388636947E0,4.884171486E-1,1.303403378E1,1.311689370E1
3.558104736E0,1.091755986E0,4.501099288E-1,1.208592987E1,1.214348512E1
3.563109533E0,6.895300746E-1,6.799532771E-1,1.128147888E1,1.132296578E1
3.568144846E0,3.734954596E-1,9.864110947E-1,1.086967564E1,1.092073048E1
3.573180160E0,1.915361285E-1,1.177947283E0,1.110909557E1,1.117301438E1
3.578215473E0,3.256114423E-1,1.302445769E0,1.137724686E1,1.145618321E1
3.583220270E0,6.224924326E-1,1.273715258E0,1.198058510E1,1.206417286E1
3.588255583E0,9.576807022E-1,1.082179189E0,1.283292103E1,1.291402827E1
3.593290897E0,1.273715258E0,9.385270476E-1,1.335006905E1,1.344349386E1
3.598326210E0,1.493981838E0,8.140285611E-1,1.383848572E1,1.394267948E1
3.603331006E0,1.637633920E0,6.033388376E-1,1.403959846E1,1.414765661E1
3.608366319E0,1.685518026E0,5.171475410E-1,1.420240402E1,1.431141826E1
3.613401633E0,1.934514999E0,6.129156351E-1,1.476743603E1,1.490621282E1
3.618436946E0,2.154781580E0,4.979939461E-1,1.451843929E1,1.468591710E1
3.623472259E0,1.972822189E0,4.405331016E-1,1.424071217E1,1.438346202E1
3.628477056E0,1.714248419E0,3.160346150E-1,1.402044487E1,1.412838985E1
3.633512370E0,1.436521053E0,1.244984865E-1,1.350329781E1,1.358006422E1
3.638547683E0,1.168370485E0,1.915361360E-2,1.293826580E1,1.299092677E1
3.643582996E0,8.427590132E-1,-9.576806799E-3,1.253604031E1,1.256434006E1
3.648587793E0,7.182605267E-1,9.576806799E-3,1.217212105E1,1.219329819E1
3.653623107E0,6.799532771E-1,1.915361360E-2,1.157835960E1,1.159832378E1
3.658658420E0,7.278373241E-1,1.149216816E-1,1.110909557E1,1.113350612E1
3.663693733E0,5.937620401E-1,2.489969730E-1,1.049618053E1,1.051590979E1
3.668698529E0,6.033388376E-1,4.309563041E-1,9.758766174E0,9.786892169E0
3.673733843E0,5.267243981E-1,6.703764796E-1,9.069235802E0,9.109219574E0
3.678769156E0,5.554547906E-1,8.427590132E-1,8.322244644E0,8.383229014E0
3.683804469E0,5.554547906E-1,1.043871999E0,7.651868820E0,7.742693021E0
3.688809266E0,5.650315881E-1,1.120486379E0,7.058106422E0,7.168794647E0
3.693844580E0,5.554547906E-1,1.168370485E0,6.531382084E0,6.658270912E0
3.698879893E0,6.320692301E-1,1.254561663E0,6.110002518E0,6.269415223E0
3.703915206E0,5.554547906E-1,1.369483352E0,5.717353821E0,5.905264548E0
3.708920003E0,5.937620401E-1,1.312022567E0,5.410895824E0,5.599263362E0
3.713955317E0,4.979939461E-1,1.379060149E0,5.219359875E0,5.421394873E0
3.718990630E0,4.118026793E-1,1.312022567E0,5.200206280E0,5.378952502E0
3.724025943E0,4.309563041E-1,1.187524080E0,5.066130638E0,5.221265787E0
3.729030739E0,4.884171486E-1,1.120486379E0,5.085284233E0,5.230120148E0
3.734066053E0,4.309563041E-1,9.864110947E-1,5.200206280E0,5.310449655E0
3.739101366E0,5.171475410E-1,9.768342972E-1,5.276820660E0,5.391334074E0
3.744136679E0,5.746083856E-1,9.097966552E-1,5.401319027E0,5.507463298E0
3.749171993E0,5.937620401E-1,7.374141216E-1,5.650316238E0,5.729084267E0
3.754176790E0,6.703764796E-1,5.458779931E-1,5.956773758E0,6.019181091E0
3.759212103E0,6.607996821E-1,4.596867263E-1,5.975927353E0,6.029898493E0
3.764247416E0,8.044517636E-1,3.160346150E-1,6.071695328E0,6.132903445E0
3.769282730E0,8.714894056E-1,2.681505978E-1,6.157886982E0,6.225027760E0
3.774318043E0,1.082179189E0,2.202665508E-1,6.110002518E0,6.209006355E0
3.779322840E0,1.273715258E0,9.576806426E-2,5.995080948E0,6.129642539E0
3.784358153E0,1.484405041E0,-1.915361360E-2,5.832275391E0,6.018244048E0
3.789393467E0,1.675941229E0,-1.244984865E-1,5.717353821E0,5.959229278E0
3.794428780E0,1.647210717E0,-1.149216816E-1,5.621585369E0,5.859072640E0
3.799433576E0,1.675941229E0,-2.489969730E-1,5.592854977E0,5.843869034E0
3.804468889E0,1.580173135E0,-3.256114423E-1,5.497087002E0,5.728955878E0
3.809504203E0,1.503558636E0,-1.915361285E-1,5.257667065E0,5.471785597E0
3.814539517E0,1.340752959E0,-2.202665508E-1,4.865017891E0,5.051191437E0
3.819574830E0,1.273715258E0,-1.532289088E-1,4.797980309E0,4.966532462E0
3.824579626E0,1.120486379E0,4.788403213E-2,4.529829502E0,4.666598110E0
3.829614940E0,1.187524080E0,2.681505978E-1,4.146757126E0,4.321771957E0
3.834650253E0,1.608903527E0,1.139639974E0,3.256114244E0,3.806524636E0
3.839685566E0,1.991975784E0,1.695094824E0,2.154781580E0,3.388863769E0
3.844720880E0,2.576161146E0,2.173935175E0,1.024718285E0,3.523158804E0
3.849725677E0,3.102885485E0,2.882618904E0,3.926490843E-1,4.253417847E0
3.854760990E0,3.552995205E0,3.466804028E0,4.596867263E-1,4.985360266E0
3.859796303E0,3.869029999E0,3.897760391E0,1.302445769E0,5.644315209E0
3.864831617E0,3.907337189E0,4.213795185E0,3.256114244E0,6.604970382E0
3.869836413E0,3.897760391E0,4.098873138E0,5.736507416E0,8.056104170E0
3.874871727E0,3.907337189E0,3.505111217E0,8.590395927E0,1.006717392E1
3.879907040E0,3.821146011E0,2.537853718E0,1.121444035E1,1.211633322E1
3.884942354E0,3.715801001E0,1.426944256E0,1.396298409E1,1.451923798E1
3.889947150E0,3.552995205E0,3.734954596E-1,1.619437981E1,1.658376348E1
3.894982463E0,3.256114244E0,-4.309563041E-1,1.825339317E1,1.854654592E1
3.900017776E0,2.796427488E0,-1.005564690E0,1.970906830E1,1.993184739E1
3.905053090E0,2.164358377E0,-1.273715258E0,2.067632675E1,2.082828091E1
3.910088403E0,1.561019540E0,-1.225831270E0,2.100193787E1,2.109551702E1
3.915093200E0,1.091755986E0,-9.864110947E-1,2.072421074E1,2.077637718E1
3.920128513E0,8.906430602E-1,-6.224924326E-1,1.982398987E1,1.985374816E1
3.925163827E0,1.053448796E0,-2.489969730E-1,1.879927254E1,1.883041162E1
3.930199140E0,1.340752959E0,5.746084079E-2,1.764047813E1,1.769144960E1
3.935203937E0,1.781286120E0,5.363011956E-1,1.649126053E1,1.659585108E1
3.940239250E0,2.470816135E0,1.091755986E0,1.552400398E1,1.575727017E1
3.945274564E0,3.112462282E0,1.628057122E0,1.497812557E1,1.538448040E1
3.950309877E0,3.610456228E0,2.212242365E0,1.451843929E1,1.512330949E1
3.955345191E0,3.801992416E0,2.738966703E0,1.431732655E1,1.506462493E1
3.960349986E0,3.677493811E0,3.055001259E0,1.426944256E1,1.504905261E1
3.965385300E0,3.332728863E0,3.064578056E0,1.410663605E1,1.481539405E1
3.970420613E0,2.748543501E0,2.978386879E0,1.405875206E1,1.463126069E1
3.975455927E0,2.250549555E0,2.681505919E0,1.389594650E1,1.433013526E1
3.980460723E0,1.637633920E0,2.394201756E0,1.360864258E1,1.391435229E1
3.985496037E0,1.168370485E0,2.116474390E0,1.323514652E1,1.345413159E1
3.990531350E0,6.991068721E-1,2.049436569E0,1.272757626E1,1.291046622E1
3.995536147E0,2.777273953E-1,2.059013367E0,1.214339066E1,1.231984599E1
4.000571460E0,-4.788403213E-2,2.173935175E0,1.169328117E1,1.189374254E1
4.005606774E0,-2.968810201E-1,2.375048161E0,1.135809326E1,1.160755248E1
4.010642087E0,-4.022258818E-1,2.470816135E0,1.104205799E1,1.132226844E1
4.015677400E0,-4.884171486E-1,2.585737944E0,1.062067890E1,1.094181943E1
4.020682196E0,-4.405331016E-1,2.815581083E0,1.030464458E1,1.069145763E1
4.025717510E0,-4.692635238E-1,2.987963676E0,1.024718285E1,1.068423565E1
4.030752823E0,-2.968810201E-1,3.150769472E0,1.017056847E1,1.065157028E1
4.035788136E0,-2.873042040E-2,3.351882458E0,1.017056847E1,1.070870694E1
4.040823450E0,1.340752989E-1,3.313575268E0,1.016099167E1,1.068847552E1
4.045828247E0,3.351882398E-1,3.217807055E0,1.010353088E1,1.060886279E1
4.050863560E0,3.830722570E-1,3.265691042E0,9.787496567E0,1.032504583E1
4.055898873E0,7.374141216E-1,3.160346270E0,9.883264542E0,1.040242693E1
4.060934187E0,7.182605267E-1,3.102885485E0,9.481039047E0,1.000169475E1
4.065938984E0,5.554547906E-1,3.169923067E0,8.916007042E0,9.479036019E0
4.070974297E0,4.213795066E-1,3.131615877E0,8.504204750E0,9.072269679E0
4.076009610E0,2.681505978E-1,3.150769472E0,8.197746277E0,8.786483769E0
4.081044924E0,2.489969730E-1,3.102885485E0,7.852981567E0,8.447438507E0
4.086049720E0,1.436520964E-1,2.959233284E0,7.508216381E0,8.071617606E0
4.091085033E0,1.244984865E-1,2.767697096E0,7.383718014E0,7.886376785E0
4.096120346E0,1.915361360E-2,2.595314741E0,7.048529625E0,7.511178026E0
4.101155660E0,-9.576806426E-2,2.403778553E0,6.828263283E0,7.239647941E0
4.106190973E0,-2.011129409E-1,2.193088770E0,6.751648903E0,7.101749621E0
4.111195770E0,-2.106897533E-1,2.509123325E0,6.665457726E0,7.125195908E0
4.116231083E0,-1.723825186E-1,2.298433542E0,6.598419666E0,6.989395866E0
4.121266397E0,-1.244984865E-1,2.116474390E0,6.368576527E0,6.712207587E0
4.126301710E0,-1.819593310E-1,2.106897593E0,6.282385349E0,6.628762504E0
4.131306507E0,-2.681505978E-1,1.896207690E0,6.196194172E0,6.485393632E0
4.136341820E0,-3.543418646E-1,1.857900500E0,5.918466568E0,6.213340401E0
4.141377134E0,-4.309563041E-1,1.714248419E0,5.746084213E0,6.011809608E0
4.146412447E0,-4.596867263E-1,1.599326730E0,5.544970989E0,5.789288484E0
4.151417243E0,-4.596867263E-1,1.532289028E0,5.363011837E0,5.596527273E0
4.156452556E0,-4.979939461E-1,1.455674648E0,5.085284233E0,5.312918443E0
4.161487870E0,-4.501099288E-1,1.426944256E0,4.855441093E0,5.080755561E0
4.166523184E0,-4.213795066E-1,1.398213744E0,4.644751072E0,4.868909003E0
4.171527980E0,-3.543418646E-1,1.359906554E0,4.443638325E0,4.660560648E0
4.176563293E0,-2.106897533E-1,1.359906554E0,4.194641590E0,4.414606900E0
4.181598607E0,-2.106897533E-1,1.379060149E0,4.213795185E0,4.438723570E0
4.186633920E0,-1.244984865E-1,1.484405041E0,4.165910721E0,4.424225393E0
4.191638717E0,-8.619125932E-2,1.484405041E0,4.098873138E0,4.360234886E0
4.196674030E0,-2.011129409E-1,1.513135433E0,4.089296341E0,4.364902040E0
4.201709344E0,-3.064578176E-1,1.455674648E0,4.175487995E0,4.432561909E0
4.206744657E0,-5.363011956E-1,1.359906554E0,4.223371983E0,4.469209741E0
4.211749453E0,-9.289502501E-1,1.235408068E0,4.185064793E0,4.461384200E0
4.216784766E0,-1.340752959E0,1.072602391E0,4.414907932E0,4.737035617E0
4.221820080E0,-1.867477298E0,9.576807022E-1,4.558559895E0,5.018475077E0
4.226855394E0,-2.432508945E0,7.852981687E-1,4.807557106E0,5.444850623E0
4.231860190E0,-2.729389906E0,7.278373241E-1,5.228936672E0,5.943155319E0
4.236895503E0,-3.083731890E0,6.416460276E-1,5.353435040E0,6.211310547E0
4.241930817E0,-3.179499865E0,7.757213712E-1,5.631162167E0,6.513136754E0
4.246966130E0,-3.131615877E0,1.082179189E0,5.870582581E0,6.741058495E0
4.251970927E0,-3.131615877E0,1.484405041E0,6.358999729E0,7.242054535E0
4.257006240E0,-3.035847664E0,1.924938202E0,6.981492043E0,7.852578510E0
4.262041554E0,-3.112462282E0,2.547430515E0,7.862558365E0,8.831571079E0
4.267046349E0,-3.026270866E0,2.987963676E0,9.394847870E0,1.031258497E1
4.272081663E0,-2.920926094E0,3.332728863E0,1.118570995E1,1.203158336E1
4.277116976E0,-2.758120298E0,3.246537447E0,1.281376743E1,1.350332806E1
4.282152291E0,-2.394201756E0,2.834734917E0,1.448970890E1,1.495725871E1
4.287187604E0,-2.231395960E0,2.288856745E0,1.578257751E1,1.610303531E1
4.292192400E0,-2.059013367E0,1.608903527E0,1.665406609E1,1.685781788E1
4.297227713E0,-1.771709204E0,1.168370485E0,1.716163826E1,1.729236452E1
4.302263027E0,-1.819593310E0,1.082179189E0,1.754471016E1,1.767198026E1
4.307267823E0,-1.838746905E0,1.034295082E0,1.788947487E1,1.801344130E1
4.312303137E0,-2.049436569E0,9.864110947E-1,1.793735886E1,1.808098559E1
4.317338450E0,-2.078166962E0,1.053448796E0,1.800439644E1,1.815452625E1
4.322373764E0,-2.087743998E0,9.768342972E-1,1.814804840E1,1.829383888E1
4.327409077E0,-1.877054095E0,9.193734527E-1,1.840662193E1,1.852491054E1
4.332413873E0,-1.580173135E0,9.002198577E-1,1.864604378E1,1.873452138E1
4.337449186E0,-1.235408068E0,7.469909191E-1,1.893334770E1,1.898830913E1
4.342484501E0,-8.140285611E-1,7.469909191E-1,1.938345718E1,1.941491824E1
4.347519814E0,-3.639186621E-1,7.757213712E-1,1.956541634E1,1.958416955E1
4.352524610E0,7.661445439E-2,8.810662031E-1,1.967076111E1,1.969063204E1
4.357559923E0,5.458779931E-1,9.576807022E-1,1.948880196E1,1.951995227E1
4.362595237E0,9.002198577E-1,1.158793569E0,1.928768921E1,1.934342662E1
4.367630550E0,9.959878922E-1,1.369483352E0,1.882800293E1,1.890399881E1
4.372635347E0,9.576807022E-1,1.446097851E0,1.817677879E1,1.825934387E1
4.377670660E0,8.140285611E-1,1.446097851E0,1.748724937E1,1.756581146E1
4.382705974E0,5.554547906E-1,1.273715258E0,1.645295334E1,1.651152792E1
4.387741287E0,1.532289088E-1,9.864110947E-1,1.538992882E1,1.542226945E1
4.392746083E0,-2.777273953E-1,8.236053586E-1,1.432690334E1,1.435324415E1
4.397781397E0,-5.075707436E-1,7.278373241E-1,1.320641613E1,1.323619289E1
4.402816711E0,-7.182605267E-1,6.224924326E-1,1.218169785E1,1.221872159E1
4.407852024E0,-9.002198577E-1,5.458779931E-1,1.129105568E1,1.134003161E1
4.412887337E0,-9.672574997E-1,5.746083856E-1,1.070687008E1,1.076581761E1
4.417892133E0,-9.672574997E-1,5.841852427E-1,1.027591324E1,1.033785531E1
4.422927447E0,-1.072602391E0,5.746083856E-1,9.950302124E0,1.002442832E1
4.427962760E0,-1.187524080E0,6.703764796E-1,9.959878922E0,1.005280091E1
4.432998073E0,-1.063025594E0,5.267243981E-1,9.385271072E0,9.459956401E0
4.438002870E0,-1.005564690E0,4.213795066E-1,9.030928612E0,9.096504418E0
4.443038184E0,-8.140285611E-1,5.458779931E-1,8.944737434E0,8.998275004E0
4.448073497E0,-8.044517636E-1,5.937620401E-1,8.762778282E0,8.819636003E0
4.453108810E0,-7.086837292E-1,6.607996821E-1,8.437167168E0,8.492624957E0
4.458113607E0,-5.554547906E-1,6.512228847E-1,7.958326340E0,8.004222598E0
4.463148921E0,-4.405331016E-1,6.320692301E-1,7.460332394E0,7.500009357E0
4.468184234E0,-3.926490843E-1,6.416460276E-1,6.789956093E0,6.831499592E0
4.473219547E0,-2.968810201E-1,7.374141216E-1,6.004657745E0,6.057048173E0
4.478224343E0,-2.681505978E-1,7.661445141E-1,5.420472622E0,5.480912844E0
4.483259657E0,-7.661445439E-2,1.015141487E0,4.960785866E0,5.064166113E0
4.488294970E0,9.576806426E-2,1.206677675E0,4.491522312E0,4.651775491E0
4.493330283E0,3.256114423E-1,1.417367458E0,4.194641590E0,4.439591354E0
4.498335080E0,4.788403511E-1,1.474828243E0,3.821146011E0,4.123780216E0
4.503370393E0,5.841852427E-1,1.561019540E0,3.409343243E0,3.794953985E0
4.508405707E0,6.033388376E-1,1.513135433E0,3.045424461E0,3.453723605E0
4.513441020E0,6.129156351E-1,1.436521053E0,2.719813108E0,3.136342082E0
4.518476334E0,5.937620401E-1,1.388636947E0,2.557007313E0,2.969705764E0
4.523481130E0,6.703764796E-1,1.292868972E0,2.394201756E0,2.802341316E0
4.528516444E0,6.895300746E-1,1.225831270E0,2.470816135E0,2.843069890E0
4.533551757E0,7.948749661E-1,1.158793569E0,2.853888512E0,3.181086038E0
4.538587071E0,9.959878922E-1,1.015141487E0,3.303998232E0,3.597069423E0
4.543591866E0,1.177947283E0,9.959878922E-1,3.811569214E0,4.111886617E0
4.548627180E0,1.264138460E0,7.565677166E-1,4.443638325E0,4.681491463E0
4.553662493E0,1.216254473E0,4.788403511E-1,5.114014626E0,5.278419140E0
4.558697807E0,1.312022567E0,3.064578176E-1,5.717353821E0,5.873964106E0
4.563702603E0,1.350329757E0,2.011129409E-1,6.349422932E0,6.494536814E0
4.568737917E0,1.388636947E0,9.576806426E-2,6.799532890E0,6.940542603E0
4.573773230E0,1.532289028E0,-1.149216816E-1,7.077260017E0,7.242149267E0
4.578808544E0,1.714248419E0,-2.489969730E-1,7.268796444E0,7.472352299E0
4.583813340E0,1.752555609E0,-5.841852427E-1,7.144298077E0,7.379276290E0
4.588848654E0,1.781286120E0,-7.565677166E-1,6.952761650E0,7.217081787E0
4.593883967E0,1.685518026E0,-9.481038451E-1,6.588842869E0,6.866783983E0
4.598919281E0,1.608903527E0,-9.864110947E-1,6.186617374E0,6.468060911E0
4.603924076E0,1.561019540E0,-9.002198577E-1,5.870582581E0,6.140921562E0
4.608959390E0,1.398213744E0,-5.458779931E-1,5.746084213E0,5.938894530E0
4.613994703E0,1.436521053E0,-1.628057212E-1,5.295974255E0,5.489757895E0
4.619030017E0,1.551442742E0,7.182605267E-1,5.104437828E0,5.383136475E0
4.624065330E0,1.580173135E0,1.426944256E0,4.386177540E0,4.875620007E0
4.629070127E0,1.513135433E0,2.011129379E0,4.003105164E0,4.728537953E0
4.634105440E0,1.417367458E0,2.614468336E0,4.060565948E0,5.033147228E0
4.639140754E0,1.273715258E0,2.901772499E0,4.213795185E0,5.272447634E0
4.644176067E0,1.388636947E0,3.074155092E0,4.683058739E0,5.771462661E0
4.649211380E0,1.561019540E0,3.150769472E0,5.516240597E0,6.541638984E0
4.654216177E0,1.580173135E0,3.112462282E0,6.148310184E0,7.070083926E0
4.659251491E0,1.522712231E0,3.093308687E0,7.192182064E0,7.975882021E0
4.664286804E0,1.513135433E0,3.112462282E0,8.178592682E0,8.880674442E0
4.669322117E0,1.541865945E0,3.007117271E0,9.356540680E0,9.948113307E0
4.674357431E0,1.493981838E0,2.844311714E0,1.061110210E1,1.108682005E1
4.679362227E0,1.570596337E0,2.422932148E0,1.222000504E1,1.255650812E1
4.684397540E0,1.695094824E0,1.838746905E0,1.400129128E1,1.422288628E1
4.689432853E0,1.714248419E0,1.168370485E0,1.567723274E1,1.581389780E1
4.694468168E0,1.704671621E0,4.788403511E-1,1.720952225E1,1.730037137E1
4.699503481E0,1.580173135E0,0.000000000E0,1.850238991E1,1.856974366E1
4.704508277E0,1.292868972E0,-2.202665508E-1,1.946007156E1,1.950421526E1
4.709543590E0,1.082179189E0,-1.532289088E-1,1.981441307E1,1.984453467E1
4.714578904E0,8.523358107E-1,2.489969730E-1,1.963245392E1,1.965252459E1
4.719614217E0,9.864110947E-1,8.331822157E-1,1.900996208E1,1.905376230E1
4.724619014E0,1.312022567E0,1.426944256E0,1.810016441E1,1.820366790E1
4.729654327E0,1.666364431E0,2.049436569E0,1.719994545E1,1.740158281E1
4.734689641E0,2.087743998E0,2.461239338E0,1.633803177E1,1.665375802E1
4.739724954E0,2.509123325E0,2.930502892E0,1.576342392E1,1.622865000E1
4.744729750E0,2.825158119E0,3.313575268E0,1.545696640E1,1.605861481E1
4.749765064E0,2.959233284E0,3.552995205E0,1.522712326E1,1.591370854E1
4.754800378E0,2.920926094E0,3.725377798E0,1.498770237E1,1.571755297E1
4.759835691E0,2.595314741E0,3.830722809E0,1.448970890E1,1.521058052E1
4.764871004E0,2.231395960E0,3.763684988E0,1.403002167E1,1.469646082E1
4.769875800E0,1.723825216E0,3.725377798E0,1.330218506E1,1.392114006E1
4.774911114E0,1.235408068E0,3.620033026E0,1.263180828E1,1.319823672E1
4.779946427E0,7.469909191E-1,3.591302633E0,1.175074196E1,1.230997102E1
4.784981740E0,3.447650373E-1,3.639186621E0,1.106121159E1,1.164958986E1
4.790017054E0,-2.873042040E-2,3.754108191E0,1.047702694E1,1.112934173E1
4.795021851E0,-3.064578176E-1,3.811569214E0,1.000776291E1,1.071341657E1
4.800057164E0,-4.118026793E-1,4.003105164E0,9.825803757E0,1.061794951E1
4.805092477E0,-2.873041928E-1,4.357447147E0,9.940725327E0,1.085761988E1
4.810127791E0,7.661445439E-2,4.386177540E0,9.768342972E0,1.070817200E1
4.815163104E0,4.884171486E-1,4.223371983E0,9.825803757E0,1.070615905E1
4.820167901E0,7.469909191E-1,4.252102375E0,9.950302124E0,1.084651476E1
4.825203214E0,7.374141216E-1,4.127603531E0,9.998186111E0,1.084179948E1
4.830238528E0,7.469909191E-1,4.012681961E0,1.001733971E1,1.081696384E1
4.835273841E0,6.703764796E-1,3.936067581E0,1.004607010E1,1.081043741E1
4.840278637E0,5.267243981E-1,3.801992416E0,9.835380554E0,1.055780733E1
4.845313950E0,4.788403511E-1,3.677493811E0,9.576807022E0,1.026978488E1
4.850349264E0,5.458779931E-1,3.533841610E0,9.567230225E0,1.021361412E1
4.855384577E0,4.979939461E-1,3.466804028E0,9.433155060E0,1.006236267E1
4.860419891E0,4.501099288E-1,3.313575268E0,9.203310966E0,9.792002489E0
4.865424687E0,3.064578176E-1,3.179499865E0,8.781931877E0,9.344809430E0
4.870460001E0,2.394201756E-1,3.045424461E0,8.379706383E0,8.919159783E0
4.875495314E0,3.543418646E-1,3.045424461E0,8.169015884E0,8.725421986E0
4.880530628E0,1.149216816E-1,2.844311714E0,7.527369976E0,8.047646543E0
4.885565941E0,-2.873042040E-2,2.710236311E0,7.105990410E0,7.605347198E0
4.890570738E0,0.000000000E0,2.729389906E0,6.856993675E0,7.380239259E0
4.895606051E0,2.873042040E-2,2.480392933E0,6.406883717E0,6.870322663E0
4.900641365E0,-3.830722719E-2,2.279279947E0,6.148310184E0,6.557309101E0
4.905676678E0,-8.619125932E-2,2.202665567E0,5.746084213E0,6.154400728E0
4.910681474E0,-8.619125932E-2,1.991975784E0,5.286397457E0,5.649902170E0
4.915716787E0,-1.723825186E-1,1.905784607E0,5.008669853E0,5.361763180E0
4.920752101E0,-2.681505978E-1,1.819593310E0,4.692635536E0,5.040203650E0
4.925756897E0,-2.011129409E-1,1.685518026E0,4.386177540E0,4.703187307E0
4.930792211E0,-2.873041928E-1,1.513135433E0,4.175487995E0,4.450485652E0
4.935827524E0,-3.447650373E-1,1.465251446E0,3.840299606E0,4.124769787E0
4.940862837E0,-2.968810201E-1,1.398213744E0,3.792415380E0,4.052845227E0
4.945898151E0,-3.639186621E-1,1.312022567E0,3.485957623E0,3.742424422E0
4.950902948E0,-2.968810201E-1,1.273715258E0,3.323152065E0,3.571250278E0
4.955938261E0,-3.830722570E-1,1.072602391E0,2.978386879E0,3.188731510E0
4.960973574E0,-4.022258818E-1,1.120486379E0,2.652775526E0,2.907661152E0
4.966008888E0,-4.788403511E-1,1.110909581E0,2.595314741E0,2.863401262E0
4.971013684E0,-3.351882398E-1,1.197100878E0,2.413355350E0,2.714716507E0
4.976048997E0,-1.628057212E-1,1.417367458E0,2.470816135E0,2.853133118E0
4.981084310E0,-1.149216816E-1,1.580173135E0,2.710236311E0,3.139352639E0
4.986119625E0,-3.830722719E-2,1.771709204E0,3.083731890E0,3.556659010E0
4.991124421E0,-9.576806426E-2,1.723825216E0,3.811569214E0,4.184352372E0
4.996159734E0,-1.819593310E-1,1.733402014E0,4.510675907E0,4.835699420E0
5.001195047E0,-4.692635238E-1,1.570596337E0,5.257667065E0,5.507271927E0
5.006230361E0,-9.576807022E-1,1.436521053E0,5.889736176E0,6.137567701E0
5.011235158E0,-1.561019540E0,1.350329757E0,6.301538944E0,6.630955099E0
5.016270471E0,-2.384624958E0,1.254561663E0,6.598419666E0,7.127377024E0
5.021305784E0,-3.016694069E0,1.110909581E0,6.780379295E0,7.503872773E0
5.026341098E0,-3.447650433E0,1.110909581E0,6.876147270E0,7.771860452E0
5.031376411E0,-3.801992416E0,1.130063176E0,7.086836815E0,8.121295781E0
5.036381207E0,-3.801992416E0,1.350329757E0,7.326257229E0,8.363766004E0
5.041416520E0,-2.537853718E0,2.001552582E0,7.872135162E0,8.509842904E0
5.046451835E0,-3.552995205E0,2.135627985E0,9.174580574E0,1.006765169E1
5.051487148E0,-4.232948780E0,2.413355350E0,9.691728592E0,1.084766069E1
5.056491944E0,-4.558559895E0,2.777273893E0,9.979032516E0,1.131701412E1
5.061527257E0,-5.066130638E0,2.997540474E0,1.030464458E1,1.186746091E1
5.066562571E0,-5.477933407E0,3.342305660E0,1.087925243E1,1.263079155E1
5.071597884E0,-5.688623428E0,3.581725836E0,1.199016190E1,1.374602411E1
5.076602681E0,-5.449203014E0,3.572149038E0,1.320641613E1,1.472628566E1
5.081637994E0,-4.941632271E0,3.351882458E0,1.481532001E1,1.597337011E1
5.086673308E0,-4.319139957E0,3.131615877E0,1.668279839E1,1.751507208E1
5.091708621E0,-3.476380825E0,2.863465309E0,1.829170036E1,1.883801899E1
5.096743935E0,-2.652775526E0,2.767697096E0,1.968991470E1,2.005966366E1
5.101748731E0,-1.857900500E0,2.959233284E0,2.074336433E1,2.103558936E1
5.106784045E0,-1.110909581E0,3.227383852E0,2.127966499E1,2.155166511E1
5.111819358E0,-4.692635238E-1,3.399766445E0,2.149035454E1,2.176267351E1
5.116854672E0,-9.576806426E-2,3.447650433E0,2.123178101E1,2.151009042E1
5.121859467E0,2.202665508E-1,3.342305660E0,2.055182648E1,2.082299441E1
5.126894781E0,1.819593310E-1,3.122039080E0,1.981441307E1,2.005969099E1
5.131930094E0,-1.340752989E-1,2.968810081E0,1.890461731E1,1.913678043E1
5.136965408E0,-5.363011956E-1,2.825158119E0,1.823423958E1,1.845959453E1
5.142000721E0,-8.236053586E-1,2.748543501E0,1.758301735E1,1.781559194E1
5.147005518E0,-9.481038451E-1,2.499546528E0,1.687433434E1,1.708478250E1
5.152040831E0,-1.206677675E0,2.346317768E0,1.619437981E1,1.640790101E1
5.157076145E0,-1.302445769E0,2.097320795E0,1.538992882E1,1.558669396E1
5.162111458E0,-1.312022567E0,2.039859772E0,1.449928570E1,1.470073865E1
5.167116255E0,-1.388636947E0,2.030282974E0,1.354160500E1,1.376319103E1
5.172151568E0,-1.417367458E0,2.193088770E0,1.271799946E1,1.298330001E1
5.177186881E0,-1.417367458E0,2.279279947E0,1.194227791E1,1.224018175E1
5.182222195E0,-1.379060149E0,2.231395960E0,1.140597725E1,1.170372812E1
5.187226991E0,-1.331176162E0,2.193088770E0,1.102290440E1,1.131751252E1
5.192262304E0,-1.158793569E0,2.116474390E0,1.072602367E1,1.099408251E1
5.197297617E0,-8.810662031E-1,2.039859772E0,1.070687008E1,1.093500674E1
5.202332931E0,-7.852981687E-1,1.886630893E0,1.074517727E1,1.093777417E1
5.207337728E0,-5.937620401E-1,1.752555609E0,1.067813969E1,1.083728156E1
5.212373041E0,-5.267243981E-1,1.685518026E0,1.072602367E1,1.087041827E1
5.217408354E0,-5.171475410E-1,1.570596337E0,1.065898609E1,1.078648223E1
5.222443668E0,-4.118026793E-1,1.474828243E0,1.055364132E1,1.066414764E1
5.227448465E0,-3.830722570E-1,1.407790542E0,1.021845245E1,1.032208260E1
5.232483778E0,-3.926490843E-1,1.292868972E0,9.950302124E0,1.004162317E1
5.237519091E0,-3.351882398E-1,1.235408068E0,9.595960617E0,9.680962990E0
5.242554405E0,-3.447650373E-1,1.130063176E0,9.461885452E0,9.535364808E0
5.247559201E0,-2.873041928E-1,9.864110947E-1,8.954314232E0,9.013062405E0
5.252594514E0,-1.819593310E-1,9.193734527E-1,8.657433510E0,8.708014224E0
5.257629827E0,-6.703764945E-2,8.714894056E-1,8.370129585E0,8.415643594E0
5.262665141E0,-6.703764945E-2,8.619126081E-1,7.852981567E0,7.900424475E0
5.267669938E0,-3.830722719E-2,8.140285611E-1,7.469909191E0,7.514230051E0
5.272705251E0,-2.873042040E-2,8.236053586E-1,6.789956093E0,6.839784716E0
5.277740564E0,-9.576806799E-3,9.481038451E-1,6.272808552E0,6.344061770E0
5.282775878E0,1.915361360E-2,1.043871999E0,5.793968201E0,5.887283170E0
5.287780675E0,-1.915361360E-2,1.225831270E0,5.391742229E0,5.529368267E0
5.292815988E0,6.703764945E-2,1.350329757E0,5.037400246E0,5.215676920E0
5.297851301E0,8.619125932E-2,1.446097851E0,4.673481941E0,4.892858202E0
5.302886615E0,2.489969730E-1,1.407790542E0,4.520252705E0,4.740944865E0
5.307921928E0,3.543418646E-1,1.379060149E0,4.309563160E0,4.538689203E0
5.312926724E0,6.129156351E-1,1.350329757E0,4.223371983E0,4.476150906E0
5.317962037E0,7.374141216E-1,1.235408068E0,4.242525578E0,4.479847760E0
5.322997351E0,7.852981687E-1,1.235408068E0,4.434061527E0,4.669456921E0
5.328032664E0,9.097966552E-1,1.091755986E0,4.663905144E0,4.875620194E0
5.333037461E0,1.024718285E0,1.005564690E0,4.912901878E0,5.118379897E0
5.338072774E0,1.082179189E0,8.427590132E-1,5.037400246E0,5.220800301E0
5.343108088E0,1.063025594E0,6.320692301E-1,5.200206280E0,5.345248383E0
5.348143401E0,1.043871999E0,4.309563041E-1,5.430049419E0,5.546244566E0
5.353178715E0,1.063025594E0,2.585737705E-1,5.669469833E0,5.774060270E0
5.358183511E0,1.110909581E0,1.053448766E-1,5.717353821E0,5.825234103E0
5.363218825E0,1.158793569E0,-1.053448766E-1,5.774814606E0,5.890872924E0
5.368254138E0,1.264138460E0,-2.202665508E-1,5.736507416E0,5.878271917E0
5.373289452E0,1.244984865E0,-3.543418646E-1,5.726930618E0,5.871395045E0
5.378324765E0,1.197100878E0,-4.788403511E-1,5.669469833E0,5.814226241E0
5.383329561E0,1.072602391E0,-3.734954596E-1,5.439626217E0,5.556933338E0
5.388364874E0,9.768342972E-1,-2.202665508E-1,5.133168221E0,5.229927206E0
5.393400188E0,9.672574997E-1,-2.873042040E-2,4.884171486E0,4.979110725E0
5.398435502E0,9.289502501E-1,1.340752989E-1,4.472368717E0,4.569792850E0
5.403440298E0,9.289502501E-1,4.309563041E-1,4.108449936E0,4.234150774E0
5.408475611E0,9.959878922E-1,6.895300746E-1,3.821146011E0,4.008565884E0
5.413510924E0,1.015141487E0,1.053448796E0,3.677493811E0,3.957805874E0
5.418546238E0,1.187524080E0,1.436521053E0,3.447650433E0,3.919196306E0
5.423551035E0,1.436521053E0,1.886630893E0,3.351882458E0,4.105859821E0
5.428586348E0,1.838746905E0,2.327163935E0,3.371036053E0,4.490051918E0
5.433621661E0,2.193088770E0,2.767697096E0,3.524264812E0,4.989010727E0
5.438656975E0,2.470816135E0,3.045424461E0,3.734954596E0,5.415665089E0
5.443692288E0,2.758120298E0,3.303998232E0,4.108449936E0,5.950041409E0
5.448697084E0,2.557007313E0,3.332728863E0,4.807557106E0,6.384197162E0
5.453732398E0,2.432508945E0,3.457227230E0,5.669469833E0,7.071945141E0
5.458767712E0,2.240972757E0,3.533841610E0,6.703764915E0,7.902560311E0
5.463772508E0,2.049436569E0,3.524264812E0,7.690176010E0,8.703989877E0
5.468807821E0,1.886630893E0,3.256114244E0,8.772355080E0,9.545463307E0
5.473843134E0,1.513135433E0,3.035847664E0,9.892841339E0,1.045821494E1
5.478878448E0,9.385270476E-1,2.470816135E0,1.111867237E1,1.142850124E1
5.483913761E0,3.543418646E-1,1.781286120E0,1.287122822E1,1.299873279E1
5.488918558E0,-1.819593310E-1,1.244984865E0,1.460463047E1,1.465872872E1
5.493953871E0,-6.512228847E-1,7.948749661E-1,1.622311020E1,1.625562124E1
5.498989185E0,-1.130063176E0,4.596867263E-1,1.753513336E1,1.757752135E1
5.504024498E0,-1.283292055E0,1.149216816E-1,1.880884933E1,1.885292706E1
5.509029294E0,-1.455674648E0,-9.576806426E-2,1.968991470E1,1.974388263E1
5.514064608E0,-1.493981838E0,-2.489969730E-1,2.015917778E1,2.021599441E1
5.519099922E0,-1.436521053E0,-1.628057212E-1,2.029325294E1,2.034468514E1
5.524135235E0,-1.187524080E0,9.576806799E-3,2.013044739E1,2.016544612E1
5.529140031E0,-7.469909191E-1,3.639186621E-1,1.959414673E1,1.961175714E1
5.534175344E0,-2.681505978E-1,9.576807022E-1,1.855985069E1,1.858647666E1
5.539210658E0,3.830722570E-1,1.465251446E0,1.753513336E1,1.760041500E1
5.544245971E0,1.091755986E0,1.953668594E0,1.653914452E1,1.668987877E1
5.549250768E0,1.771709204E0,2.499546528E0,1.565807915E1,1.595500326E1
5.554286081E0,2.403778553E0,3.112462282E0,1.503558636E1,1.554137799E1
5.559321395E0,2.949656487E0,3.476380825E0,1.480574322E1,1.549179555E1
5.564356708E0,3.122039080E0,3.955221176E0,1.447055531E1,1.532278935E1
5.569361505E0,3.102885485E0,4.204218388E0,1.419282722E1,1.512414279E1
5.574396818E0,2.806004286E0,4.299986362E0,1.385763931E1,1.477828509E1
5.579432132E0,2.518700123E0,4.376600742E0,1.345541382E1,1.437173077E1
5.584436928E0,2.126051188E0,4.491522312E0,1.300530338E1,1.392234831E1
5.589472241E0,1.742978811E0,4.548983097E0,1.241154194E1,1.333332650E1
5.594507554E0,1.704671621E0,4.702212334E0,1.179862595E1,1.281500216E1
5.599542868E0,1.484405041E0,4.769249916E0,1.131020927E1,1.236406231E1
5.604578181E0,1.264138460E0,4.759673119E0,1.078348446E1,1.185479107E1
5.609582978E0,1.053448796E0,4.750096321E0,1.029506683E1,1.138690347E1
5.614618291E0,8.044517636E-1,4.702212334E0,9.988609314E0,1.106933871E1
5.619653605E0,6.224924326E-1,4.635174274E0,9.902418137E0,1.095126579E1
5.624688918E0,5.363011956E-1,4.711789131E0,9.902418137E0,1.097936522E1
5.629693715E0,4.213795066E-1,4.635174274E0,1.005564690E1,1.108054312E1
5.634729028E0,4.309563041E-1,4.558559895E0,1.024718285E1,1.122367800E1
5.639764342E0,4.979939461E-1,4.472368717E0,1.052491093E1,1.144656411E1
5.644799655E0,5.554547906E-1,4.434061527E0,1.086967564E1,1.175241593E1
5.649804451E0,6.033388376E-1,4.290409565E0,1.106121159E1,1.187947952E1
5.654839764E0,5.937620401E-1,4.165910721E0,1.099417400E1,1.177196787E1
5.659875078E0,6.033388376E-1,3.955221176E0,1.097502041E1,1.168156091E1
5.664910391E0,4.979939461E-1,3.801992416E0,1.091755962E1,1.157135482E1
5.669915188E0,3.447650373E-1,3.620033026E0,1.056321812E1,1.117161936E1
5.674950501E0,2.202665508E-1,3.485957623E0,1.016099167E1,1.074458792E1
5.679985815E0,-5.746084079E-2,3.418920040E0,9.844957352E0,1.042187609E1
5.685021128E0,-1.723825186E-1,3.294421434E0,9.308655739E0,9.875930335E0
5.690025925E0,-4.118026793E-1,3.208230257E0,8.657433510E0,9.241941236E0
5.695061238E0,-6.512228847E-1,3.055001259E0,8.101978302E0,8.683269911E0
5.700096552E0,-9.097966552E-1,2.997540474E0,7.498639584E0,8.126658259E0
5.705131865E0,-1.110909581E0,2.834734917E0,6.933608055E0,7.572632489E0
5.710136661E0,-1.244984865E0,2.786850691E0,6.445190907E0,7.131410093E0
5.715171974E0,-1.484405041E0,2.738966703E0,5.947196960E0,6.713758159E0
5.720207288E0,-1.618480325E0,2.595314741E0,5.382165432E0,6.190544556E0
5.725242601E0,-1.915361404E0,2.499546528E0,4.989516258E0,5.900136833E0
5.730247398E0,-2.011129379E0,2.451662540E0,4.807557106E0,5.759157570E0
5.735282711E0,-2.106897593E0,2.317587137E0,4.635174274E0,5.594199510E0
5.740318025E0,-2.164358377E0,2.145204782E0,4.577713490E0,5.499255544E0
5.745353338E0,-2.126051188E0,1.953668594E0,4.635174274E0,5.460929883E0
5.750358135E0,-2.087743998E0,1.781286120E0,4.941632271E0,5.652555594E0
5.755393448E0,-2.020706177E0,1.551442742E0,5.114014626E0,5.713437987E0
5.760428762E0,-1.790862918E0,1.398213744E0,5.544970989E0,5.992403102E0
5.765433557E0,-1.580173135E0,1.379060149E0,5.612008572E0,5.991109600E0
5.770468871E0,-1.264138460E0,1.388636947E0,5.765237808E0,6.063359267E0
5.775504184E0,-9.385270476E-1,1.321599364E0,6.167463779E0,6.376916760E0
5.780539498E0,-7.086837292E-1,1.312022567E0,6.358999729E0,6.531501619E0
5.785544294E0,-4.405331016E-1,1.235408068E0,6.540958881E0,6.671165235E0
5.790579608E0,-3.447650373E-1,1.101332784E0,6.493074894E0,6.594832705E0
5.795614921E0,-2.968810201E-1,9.768342972E-1,6.588842869E0,6.667472830E0
5.800650235E0,-4.118026793E-1,7.469909191E-1,6.320692539E0,6.377988010E0
5.805655031E0,-6.895300746E-1,6.895300746E-1,5.956773758E0,6.036063042E0
5.810690345E0,-9.289502501E-1,4.979939461E-1,5.631162167E0,5.728955741E0
5.815725658E0,-1.110909581E0,4.979939461E-1,5.343858242E0,5.480779049E0
5.820730454E0,-1.398213744E0,6.991068721E-1,4.999093056E0,5.237812852E0
5.825765767E0,-1.733402014E0,7.757213712E-1,4.740519524E0,5.106755481E0
5.830801081E0,-2.164358377E0,9.768342972E-1,4.548983097E0,5.131461746E0
5.835836394E0,-2.537853718E0,1.168370485E0,4.558559895E0,5.346611955E0
5.840841191E0,-3.055001259E0,1.187524080E0,4.424484730E0,5.506297418E0
5.845876504E0,-3.543418407E0,1.082179189E0,4.022258759E0,5.468591348E0
5.850911818E0,-4.098873138E0,1.034295082E0,3.734954596E0,5.640958531E0
5.855947131E0,-4.644751072E0,1.177947283E0,3.409343243E0,5.880892251E0
5.860951928E0,-5.123591423E0,1.493981838E0,3.409343243E0,6.332992353E0
5.865987241E0,-5.391742229E0,1.915361404E0,3.696647406E0,6.812099208E0
5.871022555E0,-5.554547787E0,2.403778553E0,4.299986362E0,7.424354192E0
5.876057868E0,-5.353435040E0,2.920926094E0,5.075707436E0,7.934348237E0
5.881062664E0,-4.912901878E0,3.351882458E0,6.406883717E0,8.741846477E0
5.886097977E0,-4.510675907E0,3.677493811E0,8.025363922E0,9.913456710E0
5.891133291E0,-4.089296341E0,3.907337189E0,9.758766174E0,1.127932381E1
5.896168604E0,-3.983951569E0,3.897760391E0,1.167412758E1,1.293636970E1
5.901203918E0,-3.696647406E0,3.773261786E0,1.327345467E1,1.428591283E1
5.906208714E0,-3.323152065E0,3.648763418E0,1.476743603E1,1.557029161E1
5.911244028E0,-3.055001259E0,3.428496838E0,1.620395660E1,1.684208517E1
5.916279341E0,-2.748543501E0,3.236960649E0,1.725740623E1,1.777218263E1
5.921314654E0,-2.461239338E0,2.997540474E0,1.812889481E1,1.853914170E1
5.926319451E0,-2.202665567E0,2.815581083E0,1.855985069E1,1.890098649E1
5.931354765E0,-2.030282974E0,2.710236311E0,1.892377090E1,1.922437346E1
5.936390078E0,-1.838746905E0,2.834734917E0,1.919192123E1,1.948708682E1
5.941425391E0,-1.685518026E0,2.978386879E0,1.932599640E1,1.962666289E1
5.946460705E0,-1.426944256E0,3.093308687E0,1.931641960E1,1.961450470E1
5.951465501E0,-1.216254473E0,3.256114244E0,1.920149803E1,1.951356148E1
5.956500814E0,-9.385270476E-1,3.323152065E0,1.910573006E1,1.941527990E1
5.961536127E0,-6.512228847E-1,3.409343243E0,1.901953888E1,1.933366421E1
5.966540924E0,-7.086837292E-1,3.371036053E0,1.885673332E1,1.916878995E1
5.971576238E0,-6.703764796E-1,3.208230257E0,1.876096535E1,1.904510349E1
5.976611551E0,-7.278373241E-1,3.074155092E0,1.830127716E1,1.857193911E1
5.981646864E0,-8.236053586E-1,2.930502892E0,1.781286049E1,1.807108662E1
5.986682178E0,-1.091755986E0,2.624045134E0,1.704671669E1,1.728201649E1
5.991686975E0,-1.225831270E0,2.480392933E0,1.614649582E1,1.638182953E1
5.996722288E0,-1.264138460E0,2.327163935E0,1.529416084E1,1.552176195E1
6.001757601E0,-1.321599364E0,2.269703150E0,1.459505367E1,1.482948984E1
6.006762397E0,-1.426944256E0,2.231395960E0,1.398213768E1,1.423079309E1
6.011797711E0,-1.455674648E0,2.145204782E0,1.335006905E1,1.359945719E1
6.016833024E0,-1.417367458E0,2.001552582E0,1.289038181E1,1.312162667E1
6.021868337E0,-1.244984865E0,1.886630893E0,1.258392429E1,1.278532417E1
6.026903651E0,-1.082179189E0,1.723825216E0,1.238281155E1,1.254897235E1
6.031908448E0,-8.523358107E-1,1.541865945E0,1.207635307E1,1.220418496E1
6.036943761E0,-8.619126081E-1,1.321599364E0,1.186566353E1,1.197010815E1
6.041979074E0,-7.374141216E-1,1.177947283E0,1.147301483E1,1.155687712E1
6.047014388E0,-7.757213712E-1,1.197100878E0,1.118570995E1,1.127629821E1
6.052019185E0,-7.948749661E-1,1.110909581E0,1.082179165E1,1.090766340E1
6.057054498E0,-7.852981687E-1,9.864110947E-1,1.052491093E1,1.060016274E1
6.062089811E0,-8.619126081E-1,7.948749661E-1,1.013226128E1,1.019987442E1
6.067125125E0,-8.714894056E-1,7.086837292E-1,9.883264542E0,9.946891193E0
6.072160438E0,-7.948749661E-1,6.224924326E-1,9.404424667E0,9.458463214E0
6.077165234E0,-6.703764796E-1,6.416460276E-1,9.078812599E0,9.126113765E0
6.082200547E0,-5.554547906E-1,7.948749661E-1,8.791508675E0,8.844827924E0
6.087235861E0,-4.213795066E-1,7.948749661E-1,8.207323074E0,8.256484660E0
6.092271175E0,-3.256114423E-1,8.523358107E-1,7.603984833E0,7.658530178E0
6.097275971E0,-2.777273953E-1,9.193734527E-1,7.048529625E0,7.113659391E0
6.102311284E0,-1.436520964E-1,9.672574997E-1,6.588842869E0,6.661011436E0
6.107346598E0,-5.746084079E-2,1.168370485E0,5.975927353E0,6.089343073E0
6.112381911E0,8.619125932E-2,1.197100878E0,5.659893036E0,5.785747024E0
6.117417225E0,1.053448766E-1,1.302445769E0,5.190629482E0,5.352578533E0
6.122422021E0,2.298433632E-1,1.503558636E0,4.730942726E0,4.969440172E0
6.127457335E0,2.777273953E-1,1.484405041E0,4.271255970E0,4.530366254E0
6.132492648E0,3.639186621E-1,1.455674648E0,3.620033026E0,3.918681485E0
6.137527962E0,2.873041928E-1,1.561019540E0,3.141192675E0,3.519434205E0
6.142563275E0,3.351882398E-1,1.656787634E0,2.786850691E0,3.259422218E0
6.147568071E0,4.022258818E-1,1.752555609E0,2.327163935E0,2.940906119E0
6.152603385E0,4.405331016E-1,1.733402014E0,1.972822189E0,2.662851732E0
6.157638698E0,5.650315881E-1,1.695094824E0,1.800439715E0,2.536570584E0
6.162674012E0,6.991068721E-1,1.628057122E0,1.800439715E0,2.526045047E0
6.167678808E0,9.385270476E-1,1.570596337E0,1.886630893E0,2.628113772E0
6.172714121E0,1.063025594E0,1.388636947E0,2.212242365E0,2.819991536E0
6.177749434E0,1.312022567E0,1.369483352E0,2.489969730E0,3.129989956E0
6.182784748E0,1.532289028E0,1.292868972E0,2.786850691E0,3.433068106E0
6.187789545E0,1.685518026E0,1.350329757E0,3.150769472E0,3.819909650E0
6.192824858E0,1.838746905E0,1.407790542E0,3.591302633E0,4.273209449E0
6.197860171E0,2.001552582E0,1.350329757E0,4.319139957E0,4.948188877E0
6.202895485E0,2.145204782E0,1.292868972E0,4.788403511E0,5.403908023E0
6.207900282E0,2.240972757E0,1.149216771E0,5.152322292E0,5.734900443E0
6.212935595E0,2.269703150E0,9.193734527E-1,5.468356609E0,5.991637835E0
6.217970908E0,2.288856745E0,7.565677166E-1,5.803544998E0,6.284297451E0
6.223006222E0,2.394201756E0,6.129156351E-1,6.004657745E0,6.493364479E0
6.228041535E0,2.346317768E0,5.554547906E-1,6.119579315E0,6.577460611E0
6.233046331E0,2.221819162E0,6.607996821E-1,6.023811340E0,6.454412419E0
6.238081644E0,2.068590164E0,7.661445141E-1,5.861005783E0,6.262382252E0
6.243116958E0,1.944091797E0,9.193734527E-1,5.726930618E0,6.117391173E0
6.248152271E0,1.934514999E0,1.043871999E0,5.621585369E0,6.036078122E0
6.253187585E0,1.991975784E0,1.426944256E0,5.612008572E0,6.123624551E0
6.258192381E0,1.905784607E0,1.149216771E0,4.912901878E0,5.393451494E0
6.263227695E0,1.742978811E0,9.193734527E-1,4.261679173E0,4.695224388E0
6.268263008E0,1.695094824E0,1.015141487E0,3.351882458E0,3.890883539E0
6.273298322E0,1.742978811E0,1.321599364E0,2.624045134E0,3.416169328E0
6.278333635E0,1.800439715E0,1.924938202E0,2.001552582E0,3.309559334E0
6.283338432E0,1.771709204E0,2.451662540E0,1.752555609E0,3.495862394E0
6.288373745E0,1.675941229E0,3.150769472E0,1.848323703E0,4.019008308E0
6.293409059E0,1.474828243E0,4.050989151E0,2.671929121E0,5.071965761E0
6.298444372E0,1.350329757E0,4.654327869E0,4.079719543E0,6.334845690E0
6.303449168E0,1.455674648E0,4.874594688E0,6.023811340E0,7.884603041E0
6.308484481E0,1.436521053E0,4.548983097E0,8.552088737E0,9.792602398E0
6.313519795E0,1.302445769E0,3.849876404E0,1.114740276E1,1.186518022E1
6.318555108E0,9.097966552E-1,3.035847664E0,1.435563374E1,1.470130338E1
6.323590421E0,5.746083856E-1,2.221819162E0,1.735317421E1,1.750426549E1
6.328595218E0,1.723825186E-1,1.493981838E0,1.984314346E1,1.990005126E1
6.333630532E0,-2.585737705E-1,7.948749661E-1,2.203623199E1,2.205207943E1
6.338665845E0,-5.075707436E-1,4.022258818E-1,2.338656235E1,2.339552761E1
6.343701158E0,-8.236053586E-1,6.703764945E-2,2.374090385E1,2.375528016E1
6.348736472E0,-1.149216771E0,3.351882398E-1,2.330994797E1,2.334066676E1
6.353741269E0,-1.292868972E0,7.565677166E-1,2.192131042E1,2.197243172E1
6.358776582E0,-1.177947283E0,1.388636947E0,2.012087059E1,2.020310139E1
6.363811895E0,-7.852981687E-1,2.260126352E0,1.848323631E1,1.863745929E1
6.368847209E0,4.788403213E-2,2.873042107E0,1.707544708E1,1.731552936E1
6.373852005E0,1.072602391E0,3.524264812E0,1.627099419E1,1.668281062E1
6.378887318E0,1.781286120E0,4.232948780E0,1.599326706E1,1.663957412E1
6.383922631E0,2.260126352E0,4.778826714E0,1.586876869E1,1.672612255E1
6.388957946E0,2.394201756E0,4.979939461E0,1.583046150E1,1.676709606E1
6.393993259E0,2.269703150E0,5.018246651E0,1.597411346E1,1.689694211E1
6.398998055E0,1.915361404E0,4.845864296E0,1.628057098E1,1.709409259E1
6.404033368E0,1.302445769E0,4.443638325E0,1.615607262E1,1.680657517E1
6.409068682E0,4.884171486E-1,4.012681961E0,1.595495987E1,1.645906778E1
6.414103995E0,-1.532289088E-1,3.763684988E0,1.548569679E1,1.593723969E1
6.419139308E0,-5.554547906E-1,3.907337189E0,1.488235760E1,1.539676530E1
6.424144105E0,-9.959878922E-1,3.897760391E0,1.408748245E1,1.465065493E1
6.429179419E0,-1.283292055E0,3.888183594E0,1.324472427E1,1.386317176E1
6.434214732E0,-1.398213744E0,4.108449936E0,1.208592987E1,1.284149771E1
6.439250045E0,-1.264138460E0,4.548983097E0,1.131978607E1,1.226494395E1
6.444285359E0,-9.385270476E-1,4.884171486E0,1.067813969E1,1.177958536E1
6.449290156E0,-7.661445141E-1,5.324704647E0,1.012268448E1,1.146334149E1
6.454325469E0,-5.171475410E-1,5.449203014E0,9.739612579E0,1.117234569E1
6.459360782E0,-2.777273953E-1,5.746084213E0,9.394847870E0,1.101625085E1
6.464396096E0,1.244984865E-1,5.975927353E0,9.078812599E0,1.086977671E1
6.469400892E0,4.022258818E-1,6.110002518E0,8.801085472E0,1.072161471E1
6.474436205E0,5.841852427E-1,6.148310184E0,8.599972725E0,1.058784782E1
6.479471518E0,6.895300746E-1,6.224924564E0,8.465897560E0,1.053074352E1
6.484506832E0,6.607996821E-1,6.014234543E0,8.197746277E0,1.018875446E1
6.489542145E0,6.224924326E-1,5.908889771E0,8.015787125E0,9.977741146E0
6.494546942E0,5.075707436E-1,5.525817394E0,8.149862289E0,9.859642046E0
6.499582255E0,4.022258818E-1,5.343858242E0,7.872135162E0,9.523083460E0
6.504617569E0,2.777273953E-1,5.123591423E0,7.776367188E0,9.316662933E0
6.509652882E0,1.628057212E-1,4.817133904E0,7.728483200E0,9.108278505E0
6.514657679E0,0.000000000E0,4.558559895E0,7.747636795E0,8.989234907E0
6.519692992E0,-2.106897533E-1,4.405331135E0,7.335834026E0,8.559543997E0
6.524728306E0,-4.309563041E-1,4.079719543E0,7.307103634E0,8.379952172E0
6.529763619E0,-6.129156351E-1,3.744531393E0,7.058106422E0,8.013366783E0
6.534798933E0,-9.481038451E-1,3.466804028E0,6.991068840E0,7.860831673E0
6.539803728E0,-1.225831270E0,3.256114244E0,6.665457726E0,7.518860882E0
6.544839042E0,-1.532289028E0,2.940079689E0,6.665457726E0,7.444481509E0
6.549874355E0,-1.867477298E0,2.691082716E0,6.464344501E0,7.246871565E0
6.554909669E0,-1.953668594E0,2.413355350E0,6.196194172E0,6.930651285E0
6.559914465E0,-2.173935175E0,2.269703150E0,5.918466568E0,6.701178482E0
6.564949779E0,-2.317587137E0,2.145204782E0,5.487510204E0,6.331341243E0
6.569985092E0,-2.442085743E0,1.953668594E0,5.219359875E0,6.084597049E0
6.575020406E0,-2.403778553E0,1.991975784E0,4.778826714E0,5.708178660E0
6.580025202E0,-2.384624958E0,2.011129379E0,4.424484730E0,5.413607180E0
6.585060516E0,-2.183511972E0,2.097320795E0,4.041412354E0,5.049702255E0
6.590095829E0,-1.963245392E0,2.212242365E0,4.175487995E0,5.116937438E0
6.595131142E0,-1.819593310E0,2.193088770E0,4.146757126E0,5.031515957E0
6.600135938E0,-1.647210717E0,2.250549555E0,3.983951569E0,4.863141633E0
6.605171252E0,-1.628057122E0,2.059013367E0,4.012681961E0,4.794968463E0
6.610206565E0,-1.790862918E0,1.924938202E0,4.271255970E0,5.015596139E0
6.615241878E0,-1.924938202E0,1.800439715E0,4.443638325E0,5.166516410E0
6.620277192E0,-2.011129379E0,1.656787634E0,4.702212334E0,5.375908061E0
6.625281989E0,-2.116474390E0,1.474828243E0,4.922478676E0,5.557461516E0
6.630317302E0,-2.279279947E0,1.436521053E0,5.037400246E0,5.712627333E0
6.635352615E0,-2.308010340E0,1.312022567E0,5.209783077E0,5.847234787E0
6.640387929E0,-2.327163935E0,1.244984865E0,5.334281445E0,5.951490387E0
6.645392726E0,-2.221819162E0,1.197100878E0,5.267243862E0,5.840666812E0
6.650428039E0,-2.260126352E0,1.273715258E0,5.104437828E0,5.725889208E0
6.655463352E0,-2.317587137E0,1.426944256E0,4.845864296E0,5.557857575E0
6.660498666E0,-2.595314741E0,1.580173135E0,4.788403511E0,5.671103413E0
6.665533979E0,-2.652775526E0,1.838746905E0,4.663905144E0,5.671879703E0
6.670538775E0,-2.662352324E0,2.260126352E0,4.654327869E0,5.818853748E0
6.675574088E0,-2.432508945E0,2.853888512E0,4.941632271E0,6.203346589E0
6.680609402E0,-2.355894566E0,3.313575268E0,5.152322292E0,6.563264833E0
6.685644716E0,-2.193088770E0,3.744531393E0,5.114014626E0,6.707033569E0
6.690649512E0,-2.308010340E0,4.079719543E0,5.152322292E0,6.965446740E0
6.695684825E0,-2.681505919E0,4.309563160E0,5.018246651E0,7.137619216E0
6.700720139E0,-3.131615877E0,4.328716755E0,5.286397457E0,7.516036510E0
6.705755452E0,-3.610456228E0,4.491522312E0,5.861005783E0,8.219522836E0
6.710790766E0,-3.897760391E0,4.472368717E0,6.952761650E0,9.139776396E0
6.715795562E0,-3.936067581E0,4.510675907E0,8.389283180E0,1.030625526E1
6.720830876E0,-3.964797974E0,4.453215122E0,9.816226959E0,1.148516694E1
6.725866189E0,-3.744531393E0,4.347870350E0,1.182735634E1,1.314579210E1
6.730901503E0,-3.418920040E0,4.165910721E0,1.409705925E1,1.509208090E1
6.735936816E0,-3.064578056E0,3.840299606E0,1.608903503E1,1.682250243E1
6.740941613E0,-2.681505919E0,3.505111217E0,1.796608925E1,1.850017950E1
6.745976926E0,-2.288856745E0,3.342305660E0,1.956541634E1,1.998037509E1
6.751012240E0,-1.714248419E0,3.246537447E0,2.070505714E1,2.102802997E1
6.756047553E0,-1.063025594E0,3.371036053E0,2.127008820E1,2.156178470E1
6.761052349E0,-5.075707436E-1,3.734954596E0,2.100193787E1,2.133750004E1
6.766087662E0,-3.830722719E-2,4.050989151E0,2.015917778E1,2.056220877E1
6.771122976E0,2.106897533E-1,4.414907932E0,1.855985069E1,1.907888519E1
6.776158289E0,2.777273953E-1,4.750096321E0,1.704671669E1,1.769833601E1
6.781193602E0,1.053448766E-1,5.104437828E0,1.560061836E1,1.641480053E1
6.786198399E0,-1.915361285E-1,5.228936672E0,1.444182491E1,1.536049386E1
6.791233713E0,-6.033388376E-1,5.286397457E0,1.336922264E1,1.438909760E1
6.796269026E0,-1.206677675E0,5.056553841E0,1.268926907E1,1.371285372E1
6.801304339E0,-1.905784607E0,4.845864296E0,1.215296745E1,1.322153674E1
6.806339653E0,-2.528276920E0,4.491522312E0,1.188481712E1,1.295433653E1
6.811344450E0,-2.997540474E0,4.041412354E0,1.179862595E1,1.282676253E1
6.816379763E0,-3.294421434E0,3.687070608E0,1.181777954E1,1.281044947E1
6.821415076E0,-3.371036053E0,3.524264812E0,1.199016190E1,1.294404530E1
6.826450390E0,-3.275267839E0,3.371036053E0,1.250730991E1,1.336128979E1
6.831485703E0,-3.083731890E0,3.160346270E0,1.288080502E1,1.361661958E1
6.836490499E0,-2.863465309E0,3.007117271E0,1.322556973E1,1.386210238E1
6.841525812E0,-2.700659513E0,2.863465309E0,1.342668343E1,1.399174125E1
6.846561126E0,-2.566584110E0,2.710236311E0,1.337879944E1,1.388974475E1
6.851596439E0,-2.413355350E0,2.566584110E0,1.326387787E1,1.372377842E1
6.856601236E0,-2.183511972E0,2.604891539E0,1.312022495E1,1.355335705E1
6.861636549E0,-1.953668594E0,2.461239338E0,1.293826580E1,1.331439980E1
6.866671863E0,-1.695094824E0,2.384624958E0,1.272757626E1,1.305951684E1
6.871707176E0,-1.465251446E0,2.365471363E0,1.266053867E1,1.296270250E1
6.876742489E0,-1.168370485E0,2.298433542E0,1.250730991E1,1.277030491E1
6.881747286E0,-9.289502501E-1,2.260126352E0,1.234450436E1,1.258403383E1
6.886782600E0,-8.427590132E-1,2.250549555E0,1.204762268E1,1.228496757E1
6.891817913E0,-6.320692301E-1,2.250549555E0,1.187524033E1,1.210313255E1
6.896853226E0,-3.351882398E-1,2.298433542E0,1.145386124E1,1.168700497E1
6.901888540E0,-1.819593310E-1,2.442085743E0,1.087925243E1,1.115145845E1
6.906893336E0,5.746084079E-2,2.432508945E0,1.015141487E1,1.043894752E1
6.911928649E0,1.340752989E-1,2.461239338E0,9.308655739E0,9.629472827E0
6.916963962E0,1.244984865E-1,2.662352324E0,8.312667847E0,8.729494057E0
6.921999277E0,3.351882398E-1,2.777273893E0,7.450755596E0,7.958602917E0
6.927034590E0,3.543418646E-1,2.844311714E0,6.540958881E0,7.141415152E0
6.932039386E0,5.075707436E-1,2.863465309E0,6.177040577E0,6.827363468E0
6.937074699E0,6.129156351E-1,2.853888512E0,5.592854977E0,6.308753601E0
6.942110013E0,6.991068721E-1,2.719813108E0,5.295974255E0,5.994453859E0
6.947145326E0,8.331822157E-1,2.633621931E0,4.884171486E0,5.611175294E0
6.952150123E0,1.005564690E0,2.336740971E0,4.836287498E0,5.464539823E0
6.957185436E0,1.072602391E0,2.240972757E0,4.644751072E0,5.267461182E0
6.962220750E0,1.072602391E0,2.135627985E0,4.606443882E0,5.189480515E0
6.967256063E0,1.120486379E0,1.896207690E0,4.520252705E0,5.028297708E0
6.972291377E0,1.244984865E0,1.762132406E0,4.548983097E0,5.034714009E0
6.977296173E0,1.254561663E0,1.675941229E0,4.414907932E0,4.886114614E0
6.982331487E0,1.254561663E0,1.455674648E0,4.367023945E0,4.771143656E0
6.987366800E0,1.235408068E0,1.283292055E0,4.185064793E0,4.548388606E0
6.992402114E0,1.197100878E0,1.187524080E0,3.926490784E0,4.273241606E0
6.997437427E0,1.254561663E0,9.959878922E-1,3.763684988E0,4.090384033E0
7.002442223E0,1.379060149E0,9.289502501E-1,3.457227230E0,3.836297119E0
7.007477536E0,1.522712231E0,7.757213712E-1,3.227383852E0,3.651903984E0
7.012512850E0,1.513135433E0,7.182605267E-1,2.796427488E0,3.259675401E0
7.017548163E0,1.666364431E0,7.086837292E-1,2.566584110E0,3.141075778E0
7.022552960E0,2.011129379E0,1.350329757E0,2.700659513E0,3.627891073E0
7.027588273E0,2.154781580E0,1.216254473E0,2.298433542E0,3.377151958E0
7.032623586E0,2.240972757E0,9.768342972E-1,1.905784607E0,3.099706294E0
7.037658900E0,2.298433542E0,8.331822157E-1,1.762132406E0,3.013652264E0
7.042663697E0,2.212242365E0,8.140285611E-1,1.953668594E0,3.061613914E0
7.047699010E0,2.183511972E0,8.140285611E-1,2.164358377E0,3.180379571E0
7.052734323E0,2.193088770E0,9.002198577E-1,2.413355350E0,3.382945195E0
7.057769637E0,2.221819162E0,1.034295082E0,2.480392933E0,3.486917809E0
7.062804950E0,2.346317768E0,1.187524080E0,2.240972757E0,3.455051289E0
7.067809746E0,2.394201756E0,1.340752959E0,2.106897593E0,3.459600845E0
7.072845059E0,2.566584110E0,1.522712231E0,2.078166962E0,3.636589673E0
7.077880373E0,2.758120298E0,1.867477298E0,1.723825216E0,3.750502955E0
7.082915686E0,3.102885485E0,2.097320795E0,1.656787634E0,4.095314165E0
7.087920483E0,3.476380825E0,2.566584110E0,1.742978811E0,4.659458420E0
7.092955796E0,3.725377798E0,3.074155092E0,1.944091797E0,5.206569138E0
7.097991110E0,3.849876404E0,3.524264812E0,2.614468336E0,5.837588156E0
7.103026423E0,3.801992416E0,4.118026733E0,3.390189648E0,6.550318798E0
7.108061737E0,3.610456228E0,4.299986362E0,4.663905144E0,7.299129269E0
7.113066533E0,3.409343243E0,4.443638325E0,6.014234543E0,8.218306398E0
7.118101847E0,3.112462282E0,4.261679173E0,7.613561630E0,9.263673760E0
7.123137160E0,2.920926094E0,3.859453201E0,9.356540680E0,1.053432683E1
7.128172474E0,2.336740971E0,3.284844637E0,1.126232433E1,1.196204464E1
7.133177269E0,1.752555609E0,2.700659513E0,1.329260826E1,1.367693121E1
7.138212583E0,1.283292055E0,1.972822189E0,1.522712326E1,1.540792487E1
7.143247896E0,6.512228847E-1,1.474828243E0,1.701798630E1,1.709418226E1
7.148283210E0,7.661445439E-2,9.097966552E-1,1.822466278E1,1.824751855E1
7.153318523E0,-5.171475410E-1,4.501099288E-1,1.969949150E1,1.971141816E1
7.158323320E0,-7.757213712E-1,3.543418646E-1,2.085828590E1,2.087571299E1
7.163358633E0,-9.193734527E-1,3.351882398E-1,2.146162415E1,2.148392212E1
7.168393947E0,-9.097966552E-1,4.501099288E-1,2.195004082E1,2.197349815E1
7.173429260E0,-7.469909191E-1,6.799532771E-1,2.195004082E1,2.197327067E1
7.178434057E0,-4.118026793E-1,1.130063176E0,2.173935127E1,2.177259787E1
7.183469370E0,-6.703764945E-2,1.723825216E0,2.105939865E1,2.112993940E1
7.188504684E0,7.086837292E-1,2.413355350E0,2.050394249E1,2.065764203E1
7.193539997E0,1.158793569E0,2.892195702E0,1.991018105E1,2.015249135E1
7.198575310E0,1.398213744E0,3.265691042E0,1.935472679E1,1.967803824E1
7.203580106E0,1.388636947E0,3.495534420E0,1.894292450E1,1.931272798E1
7.208615420E0,1.225831270E0,3.639186621E0,1.840662193E1,1.880292723E1
7.213650733E0,9.481038451E-1,3.677493811E0,1.787989807E1,1.827877503E1
7.218686047E0,7.182605267E-1,3.811569214E0,1.731486702E1,1.774397300E1
7.223690843E0,4.309563041E-1,3.945644379E0,1.657745171E1,1.704598891E1
7.228726157E0,2.873041928E-1,4.185064793E0,1.561019516E1,1.616401881E1
7.233761470E0,2.873042040E-2,4.395754337E0,1.469082165E1,1.533439671E1
7.238796783E0,-5.746084079E-2,4.721365929E0,1.385763931E1,1.463997149E1
7.243832097E0,-1.532289088E-1,4.999093056E0,1.308191776E1,1.400539121E1
7.248836894E0,-2.489969730E-1,5.190629482E0,1.230619717E1,1.335841018E1
7.253872207E0,-2.968810201E-1,5.401319027E0,1.171243477E1,1.290129892E1
7.258907520E0,-3.160346150E-1,5.506663799E0,1.149216843E1,1.274728046E1
7.263942834E0,-2.202665508E-1,5.535394192E0,1.097502041E1,1.229390821E1
7.268947629E0,-1.532289088E-1,5.544970989E0,1.078348446E1,1.212657080E1
7.273982944E0,-3.160346150E-1,5.324704647E0,1.061110210E1,1.187635657E1
7.279018257E0,-2.681505978E-1,5.382165432E0,1.034295177E1,1.166260095E1
7.284053571E0,-3.830722570E-1,5.238513470E0,1.030464458E1,1.156609129E1
7.289088884E0,-5.267243981E-1,5.161899090E0,1.026633644E1,1.150305632E1
7.294093680E0,-6.895300746E-1,4.960785866E0,1.024718285E1,1.140568299E1
7.299128993E0,-8.044517636E-1,4.635174274E0,1.024718285E1,1.127549287E1
7.304164307E0,-1.015141487E0,4.376600742E0,9.873687744E0,1.084780420E1
7.309199620E0,-1.206677675E0,4.204218388E0,9.701305389E0,1.064175030E1
7.314234933E0,-1.312022567E0,3.916913986E0,9.576807022E0,1.042971002E1
7.319239730E0,-1.522712231E0,3.667917013E0,9.232041359E0,1.005001768E1
7.324275044E0,-1.704671621E0,3.447650433E0,8.896853447E0,9.692584800E0
7.329310357E0,-1.666364431E0,3.275267839E0,8.456320763E0,9.220277148E0
7.334345670E0,-1.733402014E0,3.303998232E0,8.073247910E0,8.893729177E0
7.339350467E0,-1.704671621E0,3.217807055E0,7.709329605E0,8.526074744E0
7.344385781E0,-1.503558636E0,3.131615877E0,7.307103634E0,8.090826292E0
7.349421094E0,-1.417367458E0,3.083731890E0,6.991068840E0,7.771317546E0
7.354456407E0,-1.312022567E0,2.987963676E0,6.483498096E0,7.258448713E0
7.359491721E0,-1.321599364E0,2.882618904E0,6.167463779E0,6.934964030E0
7.364496517E0,-1.292868972E0,2.748543501E0,5.746084213E0,6.499498853E0
7.369531830E0,-1.331176162E0,2.624045134E0,5.161899090E0,5.941619733E0
7.374567143E0,-1.158793569E0,2.470816135E0,4.826710701E0,5.544805777E0
7.379602457E0,-1.063025594E0,2.422932148E0,4.443638325E0,5.171706214E0
7.384607254E0,-8.810662031E-1,2.346317768E0,4.204218388E0,4.894582411E0
7.389642567E0,-6.991068721E-1,2.269703150E0,3.936067581E0,4.597056755E0
7.394677880E0,-4.884171486E-1,2.308010340E0,3.552995205E0,4.264884285E0
7.399713194E0,-4.596867263E-1,2.145204782E0,3.457227230E0,4.094586129E0
7.404748507E0,-3.447650373E-1,2.001552582E0,3.074155092E0,3.684495244E0
7.409753304E0,-3.734954596E-1,1.800439715E0,2.882618904E0,3.419148106E0
7.414788617E0,-4.884171486E-1,1.618480325E0,2.566584110E0,3.073334324E0
7.419823931E0,-6.512228847E-1,1.359906554E0,2.547430515E0,2.960209336E0
7.424859244E0,-7.948749661E-1,1.072602391E0,2.537853718E0,2.867578001E0
7.429864040E0,-9.959878922E-1,9.385270476E-1,2.547430515E0,2.891751568E0
7.434899353E0,-1.283292055E0,6.799532771E-1,2.652775526E0,3.024300407E0
7.439934667E0,-1.589749932E0,4.213795066E-1,2.633621931E0,3.104968601E0
7.444969980E0,-1.742978811E0,2.202665508E-1,2.643198729E0,3.173797726E0
7.450005294E0,-2.020706177E0,1.244984865E-1,2.729389906E0,3.398282299E0
7.455010090E0,-2.269703150E0,-1.915361360E-2,2.825158119E0,3.624008505E0
7.460045404E0,-2.461239338E0,-3.830722719E-2,2.959233284E0,3.849185388E0
7.465080717E0,-2.691082716E0,-2.873042040E-2,3.093308687E0,4.100159784E0
7.470116030E0,-2.796427488E0,1.244984865E-1,3.227383852E0,4.272178964E0
7.475120827E0,-2.940079689E0,4.309563041E-1,3.256114244E0,4.408182379E0
7.480156141E0,-3.045424461E0,7.469909191E-1,3.485957623E0,4.688763817E0
7.485191454E0,-3.169923067E0,1.082179189E0,3.782838583E0,5.052661852E0
7.490226767E0,-3.227383852E0,1.474828243E0,4.223371983E0,5.516157701E0
7.495231563E0,-3.303998232E0,1.723825216E0,4.635174274E0,5.947505212E0
7.500266877E0,-3.284844637E0,2.020706177E0,4.874594688E0,6.215716461E0
7.505302190E0,-3.217807055E0,2.231395960E0,5.094861031E0,6.425808828E0
7.510337504E0,-3.189076662E0,2.557007313E0,5.085284233E0,6.524462590E0
7.515342300E0,-3.083731890E0,3.074155092E0,5.238513470E0,6.811890727E0
7.520377614E0,-2.949656487E0,3.696647406E0,5.679046631E0,7.390348169E0
7.525412927E0,-2.853888512E0,4.434061527E0,6.119579315E0,8.078046315E0
7.530448240E0,-2.863465309E0,5.008669853E0,6.799532890E0,8.917390583E0
7.535453037E0,-2.892195702E0,5.477933407E0,7.814674377E0,9.972045227E0
7.540488351E0,-2.873042107E0,5.487510204E0,8.906430244E0,1.084857774E1
7.545523664E0,-2.825158119E0,5.363011837E0,1.010353088E1,1.178239155E1
7.550558977E0,-2.700659513E0,5.075707436E0,1.177947235E1,1.310772050E1
7.555594291E0,-2.633621931E0,4.807557106E0,1.367568016E1,1.473339057E1
7.560599087E0,-2.432508945E0,4.616020679E0,1.561019516E1,1.645912937E1
7.565634400E0,-2.193088770E0,4.232948780E0,1.698925591E1,1.764546145E1
7.570669714E0,-1.781286120E0,3.964797974E0,1.880884933E1,1.930454393E1
7.575705028E0,-1.168370485E0,3.926490784E0,2.022621536E1,2.063691371E1
7.580709824E0,-5.841852427E-1,3.821146011E0,2.100193787E1,2.135471431E1
7.585745137E0,-8.619125932E-2,3.907337189E0,2.110728264E1,2.146606842E1
7.590780450E0,3.734954596E-1,4.146757126E0,2.052309608E1,2.094116918E1
7.595815764E0,6.991068721E-1,4.577713490E0,1.944091797E1,1.998483182E1
7.600820561E0,8.523358107E-1,5.209783077E0,1.831085396E1,1.905664421E1
7.605855874E0,6.033388376E-1,5.640739441E0,1.735317421E1,1.825690594E1
7.610891187E0,2.681505978E-1,5.889736176E0,1.679771996E1,1.780236761E1
7.615926501E0,-1.723825186E-1,5.717353821E0,1.654872131E1,1.750936971E1
7.620931297E0,-6.991068721E-1,5.190629482E0,1.656787491E1,1.737601404E1
7.625966611E0,-1.312022567E0,4.692635536E0,1.677856636E1,1.747176352E1
7.631001924E0,-1.790862918E0,4.232948780E0,1.694137192E1,1.755377816E1
7.636037238E0,-2.212242365E0,3.687070608E0,1.700840950E1,1.754350306E1
7.641042034E0,-2.442085743E0,3.332728863E0,1.715206146E1,1.764267771E1
7.646077347E0,-2.624045134E0,3.035847664E0,1.708502388E1,1.754992948E1
7.651112660E0,-2.710236311E0,2.557007313E0,1.676898956E1,1.717797072E1
7.656147974E0,-2.729389906E0,2.394201756E0,1.636676216E1,1.676462570E1
7.661183287E0,-2.767697096E0,2.126051188E0,1.579215431E1,1.617319940E1
7.666188084E0,-2.604891539E0,2.020706177E0,1.504516315E1,1.540213127E1
7.671223397E0,-2.422932148E0,2.001552582E0,1.442267132E1,1.476110636E1
7.676258711E0,-2.020706177E0,2.145204782E0,1.356075859E1,1.387729551E1
7.681294024E0,-1.503558636E0,2.365471363E0,1.284249783E1,1.314480482E1
7.686298821E0,-1.101332784E0,2.518700123E0,1.219127464E1,1.249735819E1
7.691334134E0,-7.948749661E-1,2.614468336E0,1.156878281E1,1.188713618E1
7.696369448E0,-4.692635238E-1,2.643198729E0,1.096544361E1,1.128927196E1
7.701404761E0,-1.915361285E-1,2.624045134E0,1.039083576E1,1.071875771E1
7.706440074E0,-5.746084079E-2,2.509123325E0,9.682151794E0,1.000215302E1
7.711444870E0,9.576806426E-2,2.422932148E0,9.241618156E0,9.554437601E0
7.716480184E0,3.160346150E-1,2.327163935E0,8.820239067E0,9.127550989E0
7.721515497E0,4.692635238E-1,2.250549555E0,8.485051155E0,8.790976889E0
7.726550810E0,5.267243981E-1,2.068590164E0,7.891288757E0,8.174897070E0
7.731555607E0,5.458779931E-1,2.011129379E0,7.402871609E0,7.690587248E0
7.736590921E0,6.607996821E-1,1.944091797E0,6.866570473E0,7.167003502E0
7.741626234E0,5.937620401E-1,1.972822189E0,6.272808552E0,6.602477405E0
7.746661547E0,5.746083856E-1,1.972822189E0,5.592854977E0,5.958374693E0
7.751696861E0,6.703764796E-1,1.963245392E0,5.027823448E0,5.439002272E0
7.756701658E0,7.374141216E-1,2.030282974E0,4.673481941E0,5.148520370E0
7.761736971E0,8.331822157E-1,2.049436569E0,4.299986362E0,4.835728029E0
7.766772284E0,9.768342972E-1,2.202665567E0,4.060565948E0,4.721666726E0
7.771807598E0,1.139639974E0,2.288856745E0,3.687070608E0,4.486884681E0
7.776842911E0,1.225831270E0,2.394201756E0,3.380612850E0,4.320116618E0
7.781847707E0,1.264138460E0,2.422932148E0,3.284844637E0,4.273037623E0
7.786883020E0,1.273715258E0,2.394201756E0,3.093308687E0,4.113770927E0
7.791918334E0,1.292868972E0,2.413355350E0,3.007117271E0,4.066761428E0
7.796953647E0,1.302445769E0,2.451662540E0,3.102885485E0,4.163521649E0
7.801958444E0,1.350329757E0,2.461239338E0,3.294421434E0,4.328314004E0
7.806993757E0,1.359906554E0,2.375048161E0,3.600879431E0,4.522889815E0
7.812029071E0,1.446097851E0,2.240972757E0,3.687070608E0,4.550565631E0
7.817064384E0,1.570596337E0,2.106897593E0,3.849876404E0,4.661259341E0
7.822069181E0,1.723825216E0,2.001552582E0,4.213795185E0,4.973314385E0
7.827104494E0,1.810016513E0,1.934514999E0,4.434061527E0,5.165211485E0
7.832139808E0,1.790862918E0,1.905784607E0,4.654327869E0,5.338723899E0
7.837175121E0,1.704671621E0,1.723825216E0,4.999093056E0,5.555934673E0
7.842210435E0,1.589749932E0,1.484405041E0,5.305551052E0,5.734076660E0
7.847215230E0,1.398213744E0,1.225831270E0,5.449203014E0,5.757731973E0
7.852250544E0,1.082179189E0,1.015141487E0,5.544970989E0,5.740063354E0
7.857285857E0,8.523358107E-1,9.481038451E-1,5.736507416E0,5.876469567E0
7.862321172E0,7.852981687E-1,9.193734527E-1,5.956773758E0,6.078247639E0
7.867325967E0,7.086837292E-1,8.810662031E-1,6.090848923E0,6.194913307E0
7.872361281E0,6.799532771E-1,9.864110947E-1,6.177040577E0,6.292151746E0
7.877396594E0,8.619126081E-1,1.005564690E0,6.358999729E0,6.495454660E0
7.882431908E0,1.005564690E0,1.235408068E0,6.339846134E0,6.536898534E0
7.887467221E0,1.120486379E0,1.254561663E0,6.110002518E0,6.337313741E0
7.892472018E0,1.264138460E0,1.369483352E0,5.631162167E0,5.931569610E0
7.897507331E0,1.484405041E0,1.675941229E0,5.343858242E0,5.793881103E0
7.902542645E0,1.599326730E0,2.001552582E0,4.797980309E0,5.439179512E0
7.907577958E0,1.742978811E0,2.269703150E0,4.271255970E0,5.141318419E0
7.912582754E0,1.934514999E0,2.624045134E0,3.696647406E0,4.928809510E0
7.917618067E0,2.164358377E0,2.844311714E0,3.122039080E0,4.745701669E0
7.922653382E0,2.422932148E0,3.112462282E0,2.413355350E0,4.624100529E0
7.927688695E0,1.896207690E0,3.361459255E0,2.221819162E0,4.453256373E0
7.932724008E0,2.624045134E0,3.658340216E0,1.695094824E0,4.810656136E0
7.937728804E0,3.169923067E0,3.888183594E0,1.723825216E0,5.304522343E0
7.942764117E0,3.811569214E0,4.137180328E0,2.557007313E0,6.179207663E0
7.947799431E0,4.070142746E0,4.434061527E0,4.252102375E0,7.369351275E0
7.952834744E0,3.533841610E0,4.501099110E0,6.780379295E0,8.872512221E0
7.957870058E0,2.825158119E0,4.319139957E0,9.490615845E0,1.080316053E1
7.962874854E0,2.135627985E0,3.821146011E0,1.180820274E1,1.259347910E1
7.967910168E0,1.733402014E0,3.399766445E0,1.417367363E1,1.467842357E1
7.972945481E0,1.139639974E0,2.566584110E0,1.562934875E1,1.587963084E1
7.977980795E0,6.607996821E-1,1.723825216E0,1.730529022E1,1.740348526E1
7.983016108E0,2.585737705E-1,9.864110947E-1,1.838746834E1,1.841572315E1
7.988020905E0,-2.394201756E-1,2.489969730E-1,1.898123169E1,1.898437457E1
7.993056218E0,-6.799532771E-1,-2.968810201E-1,1.913446045E1,1.914883943E1
7.998091532E0,-8.331822157E-1,-4.979939461E-1,1.893334770E1,1.895821315E1
8.003126845E0,-8.523358107E-1,-3.064578176E-1,1.815762520E1,1.818020202E1
8.008131641E0,-4.596867263E-1,1.244984865E-1,1.687433434E1,1.688105361E1
8.013166954E0,1.915361285E-1,9.481038451E-1,1.534204483E1,1.537250554E1
8.018202268E0,8.236053586E-1,2.049436569E0,1.398213768E1,1.415551801E1
8.023237581E0,1.647210717E0,3.112462282E0,1.289038181E1,1.336273430E1
8.028272894E0,2.250549555E0,3.936067581E0,1.215296745E1,1.297120732E1
8.033277691E0,2.863465309E0,4.644751072E0,1.175074196E1,1.295581270E1
8.038313005E0,3.112462282E0,4.855441093E0,1.207635307E1,1.338286342E1
8.043348318E0,2.930502892E0,4.520252705E0,1.304361057E1,1.411227510E1
8.048383631E0,2.643198729E0,3.897760391E0,1.422155857E1,1.498104682E1
8.053388428E0,1.991975784E0,3.169923067E0,1.501643276E1,1.547609876E1
8.058423742E0,1.455674648E0,2.547430515E0,1.591665268E1,1.618481459E1
8.063459055E0,1.015141487E0,2.059013367E0,1.655829811E1,1.671667684E1
8.068494368E0,5.841852427E-1,1.685518026E0,1.671152878E1,1.680647011E1
8.073529682E0,4.118026793E-1,1.455674648E0,1.660618210E1,1.667494690E1
8.078534478E0,2.106897533E-1,1.225831270E0,1.594538307E1,1.599382049E1
8.083569791E0,1.436520964E-1,9.959878922E-1,1.551442719E1,1.554702797E1
8.088605104E0,-9.576806799E-3,6.607996821E-1,1.479616642E1,1.481091789E1
8.093640418E0,-3.543418646E-1,4.022258818E-1,1.422155857E1,1.423165739E1
8.098645215E0,-6.320692301E-1,3.447650373E-1,1.350329781E1,1.352247855E1
8.103680528E0,-6.991068721E-1,5.841852427E-1,1.292868900E1,1.296074929E1
8.108715841E0,-8.140285611E-1,1.130063176E0,1.237323475E1,1.245137034E1
8.113751155E0,-7.469909191E-1,1.532289028E0,1.172201157E1,1.184531385E1
8.118755952E0,-6.991068721E-1,2.020706177E0,1.084094524E1,1.104980080E1
8.123791265E0,-5.554547906E-1,2.710236311E0,1.003649330E1,1.041081691E1
8.128826578E0,-3.351882398E-1,3.361459255E0,9.509769440E0,1.009195096E1
8.133831374E0,-5.746084079E-2,3.888183594E0,8.963891029E0,9.771008944E0
8.138866688E0,-2.873042040E-2,4.213795185E0,8.494627953E0,9.482383632E0
8.143902001E0,-8.619125932E-2,4.395754337E0,8.264783859E0,9.361449533E0
8.148937314E0,-2.202665508E-1,4.299986362E0,8.236053467E0,9.293598699E0
8.153972628E0,-3.543418646E-1,3.907337189E0,8.226476669E0,9.114151658E0
8.158977425E0,-7.374141216E-1,3.390189648E0,8.111555099E0,8.822385821E0
8.164012738E0,-1.034295082E0,2.853888512E0,8.293514252E0,8.831581093E0
8.169048051E0,-1.225831270E0,2.432508945E0,8.274360657E0,8.711188573E0
8.174083365E0,-1.398213744E0,2.173935175E0,8.446743965E0,8.833373050E0
8.179088161E0,-1.618480325E0,2.001552582E0,8.647856712E0,9.022810927E0
8.184123475E0,-1.733402014E0,1.934514999E0,8.906430244E0,9.277474361E0
8.189158788E0,-1.733402014E0,1.819593310E0,9.423578262E0,9.752919031E0
8.194194102E0,-1.628057122E0,1.637633920E0,9.854534149E0,1.012147510E1
8.199229415E0,-1.570596337E0,1.493981838E0,1.011310768E1,1.034280917E1
8.204234211E0,-1.254561663E0,1.235408068E0,9.902418137E0,1.005773548E1
8.209269524E0,-1.225831270E0,8.906430602E-1,9.567230225E0,9.686475186E0
8.214304839E0,-1.407790542E0,6.416460276E-1,9.021351814E0,9.153052627E0
8.219340152E0,-1.493981838E0,4.884171486E-1,8.216899872E0,8.365881696E0
8.224344948E0,-1.551442742E0,4.979939461E-1,7.498639584E0,7.673628096E0
8.229380261E0,-1.446097851E0,6.129156351E-1,6.694188118E0,6.875974049E0
8.234415575E0,-1.235408068E0,7.374141216E-1,5.851428986E0,6.025714385E0
8.239450888E0,-1.015141487E0,1.072602391E0,5.267243862E0,5.470360686E0
8.244486201E0,-7.086837292E-1,1.379060149E0,4.740519524E0,4.987641214E0
8.249490998E0,-5.171475410E-1,1.589749932E0,4.548983097E0,4.846441338E0
8.254526312E0,-2.873041928E-1,1.714248419E0,4.587290287E0,4.905550277E0
8.259561625E0,-2.394201756E-1,1.829170108E0,4.635174274E0,4.988790019E0
8.264596938E0,-1.149216816E-1,1.867477298E0,4.769249916E0,5.123126312E0
8.269601734E0,8.619125932E-2,1.829170108E0,5.027823448E0,5.350915888E0
8.274637049E0,0.000000000E0,1.953668594E0,5.382165432E0,5.725777302E0
8.279672362E0,-9.576806799E-3,1.982398987E0,5.612008572E0,5.951860017E0
8.284707675E0,-2.777273953E-1,1.848323703E0,5.803544998E0,6.097095010E0
8.289712471E0,-7.757213712E-1,1.790862918E0,6.100425720E0,6.405008010E0
8.294747785E0,-1.110909581E0,1.656787634E0,6.531382084E0,6.829203269E0
8.299783098E0,-1.484405041E0,1.561019540E0,7.000645638E0,7.324566859E0
8.304818411E0,-1.953668594E0,1.187524080E0,7.307103634E0,7.656422006E0
8.309853725E0,-2.480392933E0,9.481038451E-1,7.287950039E0,7.756640108E0
8.314858522E0,-2.987963676E0,7.086837292E-1,6.971915245E0,7.618251882E0
8.319893835E0,-3.524264812E0,6.895300746E-1,6.732495308E0,7.630359576E0
8.324929148E0,-4.050989151E0,7.469909191E-1,6.435614109E0,7.641049502E0
8.329964462E0,-4.386177540E0,9.481038451E-1,6.071695328E0,7.550029037E0
8.334969259E0,-4.529829502E0,1.331176162E0,5.899312973E0,7.556009452E0
8.340004572E0,-4.625597477E0,1.618480325E0,5.947196960E0,7.706152235E0
8.345039885E0,-4.414907932E0,1.982398987E0,6.301538944E0,7.945483677E0
8.350075199E0,-4.070142746E0,2.355894566E0,6.856993675E0,8.314725698E0
8.355079995E0,-3.533841610E0,2.671929121E0,7.690176010E0,8.875023877E0
8.360115308E0,-2.930502892E0,2.987963676E0,8.810662270E0,9.754155205E0
8.365150621E0,-2.231395960E0,3.131615877E0,9.940725327E0,1.065852551E1
8.370185935E0,-1.580173135E0,3.256114244E0,1.153047562E1,1.208516012E1
8.375190732E0,-1.091755986E0,3.227383852E0,1.274672985E1,1.319420553E1
8.380226045E0,-4.213795066E-1,3.064578056E0,1.354160500E1,1.389043791E1
8.385261358E0,2.873042040E-2,2.806004286E0,1.439394093E1,1.466492485E1
8.390296672E0,5.746084079E-2,2.518700123E0,1.492066479E1,1.513186670E1
8.395331985E0,1.915361360E-2,2.269703150E0,1.535162163E1,1.551851172E1
8.400336782E0,-1.723825186E-1,1.915361404E0,1.543781281E1,1.555713307E1
8.405372095E0,-4.309563041E-1,1.857900500E0,1.538035202E1,1.549815298E1
8.410407409E0,-5.363011956E-1,1.752555609E0,1.520796967E1,1.531800938E1
8.415442722E0,-7.565677166E-1,1.915361404E0,1.503558636E1,1.517596327E1
8.420447518E0,-8.714894056E-1,1.886630893E0,1.505473995E1,1.519750193E1
8.425482831E0,-7.661445141E-1,1.877054095E0,1.511220074E1,1.524758737E1
8.430518145E0,-7.086837292E-1,1.896207690E0,1.534204483E1,1.547501780E1
8.435553458E0,-5.650315881E-1,1.790862918E0,1.546654320E1,1.558012866E1
