"Time (s)","Acceleration x (m/s^2)","Acceleration y (m/s^2)","Acceleration z (m/s^2)","Absolute acceleration (m/s^2)"
8.209109000E-3,-3.552995205E0,2.624045134E0,5.832275391E0,7.316066158E0
1.324442400E-2,-3.256114244E0,2.470816135E0,6.177040577E0,7.406959068E0
1.827974000E-2,-3.016694069E0,2.518700123E0,6.186617374E0,7.329292459E0
2.328453800E-2,-2.662352324E0,2.566584110E0,6.186617374E0,7.207614614E0
2.831985300E-2,-2.470816135E0,2.461239338E0,6.090848923E0,7.018623231E0
3.335516800E-2,-2.164358377E0,2.700659513E0,6.177040577E0,7.080525354E0
3.839048400E-2,-1.618480325E0,2.882618904E0,6.627150536E0,7.405949941E0
4.339528300E-2,-9.576807022E-1,2.930502892E0,6.809109688E0,7.474555122E0
4.843059800E-2,-6.512228847E-1,2.643198729E0,7.163451672E0,7.663265010E0
5.346591300E-2,-1.513135433E0,2.221819162E0,7.843404770E0,8.291263933E0
5.850122900E-2,-1.091755986E0,1.886630893E0,7.153874874E0,7.478584958E0
6.353654400E-2,-1.177947283E0,1.513135433E0,7.824251175E0,8.055808159E0
6.854134300E-2,-8.714894056E-1,1.283292055E0,8.159439087E0,8.305587186E0
7.357665800E-2,-8.331822157E-1,9.576807022E-1,8.734047890E0,8.825810868E0
7.861197400E-2,-1.101332784E0,1.244984865E-1,9.538499832E0,9.602677378E0
8.364728900E-2,-5.746083856E-1,3.160346150E-1,1.122401714E1,1.124315852E1
8.868260500E-2,5.650315881E-1,2.777273953E-1,1.175074196E1,1.176759660E1
9.368740200E-2,2.039859772E0,1.628057212E-1,1.220085144E1,1.237126952E1
9.872271900E-2,3.045424461E0,1.628057212E-1,1.235408115E1,1.272495332E1
1.037580340E-1,3.217807055E0,-1.340752989E-1,1.263180828E1,1.303590576E1
1.087933500E-1,2.987963676E0,-1.436520964E-1,1.320641613E1,1.354097448E1
1.137981470E-1,2.624045134E0,1.532289088E-1,1.335964584E1,1.361577133E1
1.188334630E-1,2.087743998E0,4.022258818E-1,1.357991219E1,1.374534378E1
1.238687780E-1,1.532289028E0,5.458779931E-1,1.353202820E1,1.362944165E1
1.289040940E-1,1.206677675E0,6.033388376E-1,1.302445698E1,1.309414252E1
1.339394090E-1,7.852981687E-1,6.224924326E-1,1.256477070E1,1.260466790E1
1.389442080E-1,3.543418646E-1,6.416460276E-1,1.221042824E1,1.223240882E1
1.439795230E-1,1.436520964E-1,6.607996821E-1,1.150174522E1,1.152160732E1
1.490148390E-1,-2.873042040E-2,6.991068721E-1,1.062067890E1,1.064370218E1
1.540501540E-1,-2.873042040E-2,7.374141216E-1,9.768342972E0,9.796179329E0
1.590854690E-1,-2.968810201E-1,6.320692301E-1,9.021351814E0,9.048338986E0
1.640902680E-1,-3.926490843E-1,6.224924326E-1,8.858546257E0,8.889066988E0
1.691255840E-1,-2.202665508E-1,6.703764796E-1,8.743624687E0,8.772051906E0
1.741608990E-1,1.340752989E-1,7.757213712E-1,8.475474358E0,8.511955440E0
1.791962140E-1,5.075707436E-1,7.661445141E-1,8.207323074E0,8.258617168E0
1.842010120E-1,8.331822157E-1,7.086837292E-1,8.398859978E0,8.469785957E0
1.892363280E-1,7.948749661E-1,5.075707436E-1,8.676587105E0,8.727692596E0
1.942716440E-1,9.289502501E-1,4.309563041E-1,9.002198219E0,9.060256325E0
1.993069590E-1,9.289502501E-1,2.968810201E-1,9.251194954E0,9.302456395E0
2.043422750E-1,9.576807022E-1,2.202665508E-1,9.481039047E0,9.531829368E0
2.093470730E-1,9.289502501E-1,2.298433632E-1,9.691728592E0,9.738859258E0
2.143823880E-1,1.034295082E0,1.915361285E-1,9.538499832E0,9.596323851E0
2.194177030E-1,1.177947283E0,1.915361285E-1,9.279925346E0,9.356348664E0
2.244530190E-1,1.149216771E0,3.351882398E-1,8.877699852E0,8.958046941E0
2.294883340E-1,1.015141487E0,5.746083856E-1,8.705317497E0,8.783122438E0
2.344931330E-1,9.576807022E-1,6.799532771E-1,8.101978302E0,8.186668504E0
2.395284480E-1,9.289502501E-1,8.714894056E-1,7.469909191E0,7.577729586E0
2.445637640E-1,9.672574997E-1,9.576807022E-1,7.125144482E0,7.253993609E0
2.495990790E-1,1.139639974E0,1.015141487E0,6.828263283E0,6.996747170E0
2.546343940E-1,1.292868972E0,1.005564690E0,6.914454460E0,7.105797000E0
2.596391930E-1,1.436521053E0,8.427590132E-1,7.096413612E0,7.289233269E0
2.646745090E-1,1.369483352E0,6.607996821E-1,7.402871609E0,7.557423432E0
2.697098240E-1,1.302445769E0,3.926490843E-1,7.642292023E0,7.762420089E0
2.747451390E-1,1.244984865E0,1.723825186E-1,7.891288757E0,7.990753488E0
2.797804550E-1,1.053448796E0,-8.619125932E-2,8.121131897E0,8.189625546E0
2.847852540E-1,1.091755986E0,-2.681505978E-1,8.130708694E0,8.208060657E0
2.898205690E-1,1.063025594E0,-3.543418646E-1,7.891288757E0,7.970446651E0
2.948558840E-1,1.197100878E0,-4.022258818E-1,7.651868820E0,7.755380881E0
2.998912000E-1,1.484405041E0,-3.830722570E-1,7.680599213E0,7.832101056E0
3.048959980E-1,1.905784607E0,-3.639186621E-1,8.006210327E0,8.237952146E0
3.099313130E-1,2.173935175E0,-3.447650373E-1,8.772355080E0,9.044283870E0
3.149666280E-1,2.365471363E0,-3.543418646E-1,9.366117477E0,9.666704171E0
3.200019440E-1,2.327163935E0,-3.926490843E-1,1.018972206E1,1.045945988E1
3.250372590E-1,2.403778553E0,-4.118026793E-1,1.230619717E1,1.254552595E1
3.300420580E-1,2.710236311E0,-1.532289088E-1,1.389594650E1,1.415860831E1
3.350773730E-1,2.949656487E0,-1.915361360E-2,1.087925243E1,1.127204390E1
3.401126890E-1,2.777273893E0,6.703764945E-2,9.548076630E0,9.944018888E0
3.451480040E-1,2.777273893E0,8.619125932E-2,8.772355080E0,9.201896155E0
3.501833200E-1,2.422932148E0,-7.661445439E-2,8.571242332E0,8.907449977E0
3.551881180E-1,1.991975784E0,-2.585737705E-1,8.791508675E0,9.018062580E0
3.602234340E-1,1.771709204E0,-6.224924326E-1,9.088389397E0,9.280370260E0
3.652587490E-1,1.628057122E0,-8.810662031E-1,8.743624687E0,8.937439248E0
3.702940650E-1,2.078166962E0,-8.140285611E-1,7.603984833E0,7.924771653E0
3.752988620E-1,2.681505919E0,-4.884171486E-1,6.387730122E0,6.944934946E0
3.803341790E-1,3.208230257E0,-3.926490843E-1,5.372588634E0,6.269898191E0
3.853694940E-1,4.185064793E0,-1.819593310E-1,4.750096321E0,6.333347581E0
3.904048100E-1,6.272808552E0,1.340752959E0,6.339846134E0,9.018835547E0
3.954401250E-1,6.330269337E0,8.619126081E-1,5.861005783E0,8.669866897E0
4.004449230E-1,5.707777023E0,-2.298433632E-1,6.540958881E0,8.684220725E0
4.054802380E-1,4.807557106E0,-1.369483352E0,7.728483200E0,9.204213304E0
4.105155540E-1,4.137180328E0,-2.078166962E0,8.236053467E0,9.448154089E0
4.155508690E-1,3.629609823E0,-2.480392933E0,7.872135162E0,9.016480942E0
4.205861840E-1,3.744531393E0,-2.700659513E0,7.335834026E0,8.667729693E0
4.255909830E-1,3.342305660E0,-2.959233284E0,7.038952827E0,8.335162006E0
4.306262980E-1,1.963245392E0,-2.873042107E0,7.153874874E0,7.955289381E0
4.356616140E-1,2.968810201E-1,-2.547430515E0,6.818686485E0,7.285054973E0
4.406969290E-1,-1.733402014E0,-2.336740971E0,6.828263283E0,7.422278650E0
4.457322450E-1,-3.342305660E0,-2.221819162E0,6.617573261E0,7.739493742E0
4.507370430E-1,-4.050989151E0,-2.068590164E0,5.841852188E0,7.403837880E0
4.557723590E-1,-3.878606796E0,-2.212242365E0,4.807557106E0,6.561266058E0
4.608076740E-1,-3.600879431E0,-2.738966703E0,3.859453201E0,5.946734422E0
4.658429900E-1,-2.509123325E0,-3.505111217E0,2.576161146E0,5.021763710E0
4.708783050E-1,-6.320692301E-1,-3.888183594E0,7.469909191E-1,4.009423725E0
4.758831040E-1,1.024718285E0,-3.380612850E0,-9.864110947E-1,3.667641975E0
4.809184190E-1,2.461239338E0,-2.135627985E0,-2.863465309E0,4.337976434E0
4.859537350E-1,3.706224203E0,-9.959878922E-1,-4.702212334E0,6.069504968E0
4.909890500E-1,4.730942726E0,-3.160346150E-1,-5.851428986E0,7.531329108E0
4.960243650E-1,5.267243862E0,3.830722719E-2,-6.148310184E0,8.096112862E0
5.010291630E-1,5.870582581E0,-2.394201756E-1,-5.822698593E0,8.271933315E0
5.060644790E-1,7.010222435E0,-1.254561663E0,-5.142745018E0,8.784359389E0
5.110997940E-1,6.531382084E0,-2.212242365E0,-4.012681961E0,7.978382338E0
5.161351090E-1,5.717353821E0,-3.332728863E0,-3.131615877E0,7.321354682E0
5.211704260E-1,4.778826714E0,-4.127603531E0,-2.604891539E0,6.830794653E0
5.261752240E-1,4.213795185E0,-4.750096321E0,-2.777273893E0,6.930565287E0
5.312105390E-1,3.897760391E0,-5.544970989E0,-1.991975784E0,7.064503299E0
5.362458540E-1,3.045424461E0,-6.828263283E0,6.991068721E-1,7.509230322E0
5.412811700E-1,2.279279947E0,-7.335834026E0,-1.034295082E0,7.751086650E0
5.463164850E-1,1.235408068E0,-8.724471092E0,-4.788403213E-2,8.811635592E0
5.513212840E-1,1.628057122E0,-9.567230225E0,-8.619125932E-2,9.705147763E0
5.563565990E-1,1.896207690E0,-9.816226959E0,-2.489969730E-1,1.000079571E1
5.613919150E-1,1.829170108E0,-9.701305389E0,-6.895300746E-1,9.896294320E0
5.664272300E-1,2.173935175E0,-9.509769440E0,-1.369483352E0,9.850745839E0
5.714625460E-1,3.189076662E0,-9.691728592E0,-2.212242365E0,1.044001098E1
5.764673440E-1,4.319139957E0,-9.950302124E0,-2.863465309E0,1.121886429E1
5.815026600E-1,5.640739441E0,-1.026633644E1,-2.987963676E0,1.208898392E1
5.865379750E-1,7.460332394E0,-1.056321812E1,-2.834734917E0,1.323910339E1
5.915732910E-1,9.279925346E0,-1.069729328E1,-2.298433542E0,1.434684267E1
5.966086060E-1,1.086967564E1,-1.074517727E1,-1.580173135E0,1.536572908E1
6.016134040E-1,1.218169785E1,-1.073560047E1,-6.703764945E-2,1.623734504E1
6.066487190E-1,1.335964584E1,-1.073560047E1,8.427590132E-1,1.715935597E1
6.116840350E-1,1.473870564E1,-1.009395409E1,2.020706177E0,1.797778091E1
6.167193510E-1,1.612734222E1,-9.864110947E0,3.150769472E0,1.916557331E1
6.217241490E-1,1.715206146E1,-9.902418137E0,4.625597477E0,2.033831973E1
6.267594640E-1,1.778413010E1,-1.016099167E1,5.813121796E0,2.129115826E1
6.317947790E-1,1.775539970E1,-1.058237171E1,6.847416878E0,2.177447881E1
6.368300950E-1,1.717121506E1,-1.108994198E1,7.738059998E0,2.185669262E1
6.418654100E-1,1.624226379E1,-1.165497398E1,7.805097580E0,2.146087370E1
6.468702090E-1,1.519839191E1,-1.219127464E1,7.307103634E0,2.080894177E1
6.519055240E-1,1.409705925E1,-1.275630665E1,6.138733387E0,1.997835044E1
6.569408400E-1,1.314895535E1,-1.311064816E1,4.625597477E0,1.913583742E1
6.619761550E-1,1.273715305E1,-1.316810894E1,2.834734917E0,1.853833550E1
6.670114710E-1,1.305318737E1,-1.314895535E1,1.235408068E0,1.856897844E1
6.720162690E-1,1.413536644E1,-1.277546024E1,4.022258818E-1,1.905735434E1
6.770515850E-1,1.537077522E1,-1.218169785E1,-5.746084079E-2,1.961269474E1
6.820869000E-1,1.643379974E1,-1.149216843E1,-1.436520964E-1,2.005393590E1
6.871222160E-1,1.695094872E1,-1.077390766E1,-9.576806426E-2,2.008534093E1
6.921270130E-1,1.725740623E1,-1.008437729E1,0.000000000E0,1.998781467E1
6.971623290E-1,1.723825264E1,-9.720458984E0,3.064578176E-1,1.979238726E1
7.021976440E-1,1.707544708E1,-9.337387085E0,8.331822157E-1,1.947952472E1
7.072329600E-1,1.679771996E1,-9.126696587E0,1.398213744E0,1.916807210E1
7.122682760E-1,1.651041412E1,-9.136273384E0,1.762132406E0,1.895179085E1
7.172730740E-1,1.598369026E1,-9.461885452E0,1.819593310E0,1.866324062E1
7.223083890E-1,1.558146477E1,-9.691728592E0,1.867477298E0,1.844448749E1
7.273437050E-1,1.520796967E1,-9.825803757E0,1.905784607E0,1.820606426E1
7.323790200E-1,1.485362720E1,-9.892841339E0,2.087743998E0,1.796822823E1
7.374143350E-1,1.463336086E1,-9.643844604E0,2.442085743E0,1.769471027E1
7.424191340E-1,1.457590008E1,-9.126696587E0,2.451662540E0,1.737135869E1
7.474544500E-1,1.449928570E1,-8.609549522E0,2.604891539E0,1.706279838E1
7.524897650E-1,1.467166805E1,-8.245630264E0,2.863465309E0,1.707183925E1
7.575250800E-1,1.498770237E1,-7.920019150E0,3.303998232E0,1.727062043E1
7.625603960E-1,1.524627686E1,-7.699752808E0,3.869029999E0,1.751298217E1
7.675651950E-1,1.494939518E1,-7.489062786E0,4.213795185E0,1.724315944E1
7.726005100E-1,1.483447361E1,-7.019799232E0,4.711789131E0,1.707454671E1
7.776358250E-1,1.476743603E1,-6.607996464E0,5.142745018E0,1.697617773E1
7.826711410E-1,1.437478733E1,-6.148310184E0,5.324704647E0,1.651631643E1
7.877064560E-1,1.407790565E1,-5.592854977E0,5.458779812E0,1.610173070E1
7.927112540E-1,1.383848572E1,-5.286397457E0,5.305551052E0,1.573526476E1
7.977465690E-1,1.362779617E1,-4.817133904E0,5.133168221E0,1.533854698E1
8.027818860E-1,1.321599293E1,-4.778826714E0,4.644751072E0,1.480112720E1
8.078172010E-1,1.269884586E1,-5.257667065E0,3.926490784E0,1.429409245E1
8.128219990E-1,1.221042824E1,-5.822698593E0,2.873042107E0,1.382941603E1
8.178573140E-1,1.150174522E1,-5.966350555E0,2.164358377E0,1.313666355E1
8.228926300E-1,1.101332760E1,-6.062118530E0,1.800439715E0,1.269977358E1
8.279279450E-1,9.730035782E0,-7.010222435E0,1.723825216E0,1.211562579E1
8.329632600E-1,9.777919769E0,-7.201758862E0,1.436521053E0,1.222851743E1
8.379680590E-1,9.950302124E0,-7.125144482E0,1.158793569E0,1.229304677E1
8.430033750E-1,1.073560047E1,-6.234501362E0,8.619126081E-1,1.244447741E1
8.480386900E-1,1.155920601E1,-5.104437828E0,5.267243981E-1,1.264705372E1
8.530740050E-1,1.223915863E1,-4.204218388E0,-1.053448766E-1,1.294154372E1
8.581093210E-1,1.239238834E1,-3.591302633E0,-1.072602391E0,1.294678413E1
8.631141200E-1,1.215296745E1,-3.055001259E0,-2.183511972E0,1.271988110E1
8.681494350E-1,1.180820274E1,-3.055001259E0,-3.169923067E0,1.260218620E1
8.731847500E-1,1.142513084E1,-3.524264812E0,-3.974374771E0,1.259959174E1
8.782200660E-1,1.021845245E1,-4.472368717E0,-5.085284233E0,1.225883225E1
8.832553810E-1,9.270348549E0,-5.161899090E0,-6.042964935E0,1.221073256E1
8.882601790E-1,7.824251175E0,-5.985504150E0,-7.249642849E0,1.223120958E1
8.932954940E-1,7.872135162E0,-5.592854977E0,-8.034940720E0,1.256227731E1
8.983308110E-1,7.996633530E0,-5.353435040E0,-8.532935143E0,1.286143058E1
9.033661260E-1,7.948749542E0,-5.410895824E0,-8.944737434E0,1.313273546E1
9.084014420E-1,7.738059998E0,-5.650316238E0,-8.657433510E0,1.291335747E1
9.134062390E-1,7.469909191E0,-5.928043365E0,-6.876147270E0,1.175681261E1
9.184415550E-1,7.862558365E0,-6.684611320E0,-5.889736176E0,1.188245954E1
9.234768700E-1,6.809109688E0,-7.546523571E0,-6.789956093E0,1.222364498E1
9.285121860E-1,5.679046631E0,-6.914454460E0,-5.679046631E0,1.059777438E1
9.335169840E-1,4.692635536E0,-6.464344501E0,-3.552995205E0,8.742559867E0
9.385523000E-1,4.338293552E0,-6.971915245E0,-7.086837292E-1,8.242003747E0
9.435876150E-1,4.730942726E0,-7.862558365E0,4.596867263E-1,9.187652312E0
9.486229310E-1,5.554547787E0,-7.996633530E0,1.206677675E0,9.810974464E0
9.536582460E-1,6.157886982E0,-7.920019150E0,1.733402014E0,1.018091145E1
9.586630450E-1,6.301538944E0,-7.939172745E0,2.327163935E0,1.039978600E1
9.636983600E-1,6.282385349E0,-8.264783859E0,3.217807055E0,1.086873038E1
9.687336760E-1,5.880159378E0,-8.427590370E0,3.849876404E0,1.097370047E1
9.737689910E-1,5.257667065E0,-8.494627953E0,3.552995205E0,1.060309115E1
9.788043060E-1,5.056553841E0,-8.619126320E0,3.160346270E0,1.048073775E1
9.838091040E-1,4.807557106E0,-8.599972725E0,2.652775526E0,1.020339915E1
9.888444200E-1,4.941632271E0,-8.743624687E0,2.643198729E0,1.038543219E1
9.938797360E-1,5.056553841E0,-9.078812599E0,2.844311714E0,1.077421385E1
9.989150510E-1,5.152322292E0,-9.452308655E0,3.562572241E0,1.133950990E1
1.003950367E0,4.443638325E0,-9.356540680E0,4.663905144E0,1.135970009E1
1.008955165E0,4.414907932E0,-9.624691010E0,5.506663799E0,1.193521828E1
1.013990480E0,4.347870350E0,-9.624691010E0,5.650316238E0,1.197767620E1
1.019025795E0,4.223371983E0,-9.538499832E0,5.228936672E0,1.166883150E1
1.024061111E0,3.830722809E0,-9.567230225E0,4.424484730E0,1.121527514E1
1.029065910E0,3.505111217E0,-9.595960617E0,4.079719543E0,1.100056255E1
1.034101225E0,3.620033026E0,-9.528923035E0,3.974374771E0,1.094078005E1
1.039136540E0,4.242525578E0,-9.548076630E0,3.639186621E0,1.106383613E1
1.044171856E0,4.922478676E0,-9.509769440E0,3.055001259E0,1.113550824E1
1.049207171E0,5.535394192E0,-9.538499832E0,2.346317768E0,1.127513969E1
1.054211970E0,6.177040577E0,-9.835380554E0,1.695094824E0,1.173728620E1
1.059247285E0,6.847416878E0,-1.042914295E1,9.481038451E-1,1.251211579E1
1.064282601E0,7.115567684E0,-1.107078838E1,2.873042040E-2,1.316033755E1
1.069317916E0,7.058106422E0,-1.159751320E1,-9.768342972E-1,1.361151659E1
1.074322714E0,6.406883717E0,-1.133893967E1,-2.231395960E0,1.321358542E1
1.079358029E0,5.928043365E0,-1.086967564E1,-2.853888512E0,1.270575563E1
1.084393346E0,5.928043365E0,-1.035252857E1,-3.236960649E0,1.236100563E1
1.089428661E0,6.062118530E0,-9.691728592E0,-3.983951569E0,1.210581490E1
1.094463976E0,6.521805286E0,-9.050082207E0,-4.568136692E0,1.205428575E1
1.099468774E0,7.010222435E0,-8.542511940E0,-4.951209068E0,1.210917834E1
1.104504090E0,7.441178799E0,-8.283937454E0,-5.382165432E0,1.236779958E1
1.109539405E0,7.632715225E0,-8.255207062E0,-5.200206280E0,1.238745053E1
1.114574720E0,7.575253963E0,-8.781931877E0,-4.836287498E0,1.256568649E1
1.119579519E0,7.326257229E0,-9.299078941E0,-4.970362663E0,1.283944777E1
1.124614835E0,6.531382084E0,-1.002691650E1,-5.085284233E0,1.300223528E1
1.129650150E0,5.525817394E0,-1.082179165E1,-4.845864296E0,1.308159903E1
1.134685465E0,4.807557106E0,-1.153047562E1,-4.328716755E0,1.322128065E1
1.139720781E0,4.501099110E0,-1.224873543E1,-3.869029999E0,1.361105455E1
1.144725580E0,4.376600742E0,-1.271799946E1,-2.940079689E0,1.376757832E1
1.149760895E0,4.031835556E0,-1.281376743E1,-1.244984865E0,1.349067534E1
1.154796210E0,3.897760391E0,-1.306276417E1,-8.619126081E-1,1.365910821E1
1.159831526E0,4.127603531E0,-1.292868900E1,-3.351882398E-1,1.357573060E1
1.164836324E0,4.568136692E0,-1.294784260E1,7.565677166E-1,1.375088708E1
1.169871639E0,4.836287498E0,-1.274672985E1,1.283292055E0,1.369363491E1
1.174906954E0,4.941632271E0,-1.228704357E1,9.002198577E-1,1.327409376E1
1.179942271E0,5.094861031E0,-1.180820274E1,2.298433632E-1,1.286250710E1
1.184977586E0,5.726930618E0,-1.114740276E1,-2.777273953E-1,1.253552772E1
1.189982384E0,6.627150536E0,-1.068771648E1,-6.703764796E-1,1.259348294E1
1.195017699E0,7.508216381E0,-1.021845245E1,-1.005564690E0,1.272011180E1
1.200053015E0,8.197746277E0,-9.883264542E0,-1.292868972E0,1.290555974E1
1.205088330E0,8.772355080E0,-9.442731857E0,-1.340752959E0,1.295827987E1
1.210093129E0,9.126696587E0,-9.605537415E0,-1.130063176E0,1.329811951E1
1.215128444E0,8.868123055E0,-1.033337498E1,-6.512228847E-1,1.363254694E1
1.220163760E0,7.757213593E0,-1.018972206E1,-1.790862918E0,1.293104746E1
1.225199075E0,7.575253963E0,-1.025675964E1,-1.628057122E0,1.285442185E1
1.230203874E0,7.671022415E0,-1.051533413E1,-7.278373241E-1,1.303635624E1
1.235239189E0,7.862558365E0,-1.095586681E1,1.915361285E-1,1.348656842E1
1.240274505E0,7.642292023E0,-1.140597725E1,1.350329757E0,1.379580860E1
1.245309820E0,7.192182064E0,-1.158793640E1,2.997540474E0,1.396398946E1
1.250345136E0,6.751648903E0,-1.131978607E1,4.127603531E0,1.381156872E1
1.255349933E0,5.995080948E0,-1.056321812E1,4.338293552E0,1.289741693E1
1.260385249E0,5.803544998E0,-1.034295177E1,4.481945515E0,1.267854966E1
1.265420564E0,6.148310184E0,-1.075475407E1,4.606443882E0,1.321687476E1
1.270455879E0,6.177040577E0,-1.085052204E1,4.558559895E0,1.329173153E1
1.275460678E0,6.272808552E0,-1.086967564E1,4.386177540E0,1.329422916E1
1.280495994E0,6.675034523E0,-1.057279491E1,4.683058739E0,1.335182075E1
1.285531309E0,7.211335659E0,-1.000776291E1,4.127603531E0,1.300752826E1
1.290566624E0,7.345410824E0,-9.595960617E0,3.629609823E0,1.261790743E1
1.295601940E0,7.326257229E0,-9.318233490E0,2.729389906E0,1.216359690E1
1.300606739E0,6.550535679E0,-8.963891029E0,1.244984865E0,1.117187752E1
1.305642054E0,5.937620163E0,-9.069235802E0,-5.075707436E-1,1.085191224E1
1.310677369E0,5.544970989E0,-9.490615845E0,-1.541865945E0,1.109936228E1
1.315712685E0,5.037400246E0,-9.844957352E0,-2.020706177E0,1.124196780E1
1.320717484E0,4.616020679E0,-1.023760605E1,-2.336740971E0,1.147068363E1
1.325752799E0,4.165910721E0,-1.036210537E1,-1.733402014E0,1.130189021E1
1.330788114E0,3.418920040E0,-1.019929886E1,-1.704671621E0,1.089130923E1
1.335823430E0,3.754108191E0,-1.055364132E1,-1.063025594E0,1.125178638E1
1.340828228E0,4.663905144E0,-1.096544361E1,2.681505978E-1,1.191909684E1
1.345863543E0,5.104437828E0,-1.080263805E1,1.704671621E0,1.206889306E1
1.350898858E0,4.884171486E0,-1.012268448E1,3.227383852E0,1.169358280E1
1.355934174E0,4.213795185E0,-9.414001465E0,4.050989151E0,1.108106523E1
1.360969489E0,3.495534420E0,-8.734047890E0,4.999093056E0,1.065332271E1
1.365974288E0,3.256114244E0,-8.485051155E0,5.066130638E0,1.040500133E1
1.371009603E0,3.457227230E0,-8.092401505E0,4.702212334E0,9.977483804E0
1.376044919E0,5.238513470E0,-8.350975990E0,4.759673119E0,1.094693160E1
1.381080234E0,5.219359875E0,-8.552088737E0,6.090848923E0,1.172511748E1
1.386085033E0,4.098873138E0,-9.404424667E0,5.248090267E0,1.152329882E1
1.391120348E0,4.185064793E0,-1.083136845E1,7.000645638E0,1.355884763E1
1.396155664E0,3.543418407E0,-1.087925243E1,1.256477070E1,1.699374621E1
1.401190979E0,3.677493811E0,-1.003649330E1,1.421198082E1,1.778301317E1
1.406226295E0,1.647210717E0,-8.283937454E0,1.650083733E1,1.853684319E1
1.411231093E0,1.034295082E0,-7.958326340E0,9.452308655E0,1.239963158E1
1.416266409E0,3.667917013E0,-8.705317497E0,6.014234543E0,1.119853495E1
1.421301724E0,5.956773758E0,-8.427590370E0,5.746084213E0,1.181206658E1
1.426337040E0,5.085284233E0,-6.540958881E0,5.066130638E0,9.711330417E0
1.431341837E0,5.458779812E0,-6.368576527E0,6.675034523E0,1.071975419E1
1.436377153E0,5.181052685E0,-6.607996464E0,6.177040577E0,1.042423880E1
1.441412468E0,5.746084213E0,-6.339846134E0,5.822698593E0,1.034963534E1
1.446447784E0,5.506663799E0,-6.042964935E0,4.213795185E0,9.197654118E0
1.451483099E0,5.133168221E0,-5.410895824E0,3.849876404E0,8.393375836E0
1.456487898E0,4.750096321E0,-5.324704647E0,2.930502892E0,7.713866854E0
1.461523213E0,4.625597477E0,-5.631162167E0,2.346317768E0,7.655804754E0
1.466558529E0,5.085284233E0,-5.736507416E0,1.561019540E0,7.823325065E0
1.471593844E0,5.094861031E0,-5.401319027E0,1.149216771E0,7.513491554E0
1.476598643E0,4.807557106E0,-5.544970989E0,1.628057212E-1,7.340695764E0
1.481633958E0,4.922478676E0,-6.177040577E0,-4.884171486E-1,7.913607137E0
1.486669274E0,4.960785866E0,-7.096413612E0,-3.734954596E-1,8.666486106E0
1.491704589E0,4.395754337E0,-7.718906403E0,1.781286120E0,9.059644170E0
1.496739904E0,4.261679173E0,-8.044517517E0,5.880159378E0,1.083754796E1
1.501744702E0,3.294421434E0,-8.283937454E0,5.190629482E0,1.031598113E1
1.506780018E0,3.418920040E0,-8.494627953E0,2.930502892E0,9.614341657E0
1.511815334E0,2.748543501E0,-8.561665535E0,1.158793569E0,9.066389063E0
1.516850649E0,2.355894566E0,-8.159439087E0,-1.723825186E-1,8.494492401E0
1.521855447E0,2.298433542E0,-7.795520782E0,2.394201756E-1,8.130821794E0
1.526890762E0,2.288856745E0,-7.479485989E0,-5.746084079E-2,7.822076297E0
1.531926078E0,3.399766445E0,-7.182605267E0,4.022258818E-1,7.956759137E0
1.536961393E0,5.209783077E0,-6.636727333E0,2.355894566E0,8.760035879E0
1.541996709E0,6.311115742E0,-5.975927353E0,3.725377798E0,9.456232303E0
1.547001507E0,6.454767704E0,-5.880159378E0,4.951209068E0,1.003766764E1
1.552036823E0,7.393294811E0,-6.435614109E0,9.193734169E0,1.343884984E1
1.557072138E0,7.623138428E0,-6.770802498E0,1.303403378E1,1.654817339E1
1.562107454E0,7.374141216E0,-6.062118530E0,1.093671322E1,1.451685006E1
1.567112252E0,6.282385349E0,-6.588842869E0,7.546523571E0,1.182502575E1
1.572147568E0,4.539406300E0,-6.320692539E0,6.675034523E0,1.025248505E1
1.577182883E0,3.878606796E0,-6.531382084E0,7.383718014E0,1.059348075E1
1.582218199E0,4.175487995E0,-6.636727333E0,7.632715225E0,1.094254045E1
1.587253514E0,4.778826714E0,-6.598419666E0,8.925583839E0,1.208479928E1
1.592258312E0,4.788403511E0,-6.464344501E0,9.452308655E0,1.241219952E1
1.597293627E0,4.874594688E0,-6.378153324E0,9.126696587E0,1.215479756E1
1.602328944E0,4.625597477E0,-6.291962147E0,8.532935143E0,1.156701871E1
1.607364259E0,4.338293552E0,-6.100425720E0,7.268796444E0,1.043414523E1
1.612369057E0,4.223371983E0,-6.129156113E0,5.937620163E0,9.521489314E0
1.617404372E0,3.409343243E0,-6.081272125E0,5.439626217E0,8.842795112E0
1.622439688E0,2.633621931E0,-6.493074894E0,4.644751072E0,8.406527141E0
1.627475003E0,2.183511972E0,-6.924031258E0,4.213795185E0,8.394403091E0
1.632479802E0,2.059013367E0,-7.029376030E0,4.175487995E0,8.431272941E0
1.637515117E0,1.905784607E0,-7.125144482E0,3.792415380E0,8.293498253E0
1.642550433E0,2.059013367E0,-7.354987621E0,2.978386879E0,8.197936774E0
1.647585748E0,2.240972757E0,-7.728483200E0,3.543418407E0,8.792452757E0
1.652621063E0,2.557007313E0,-7.508216381E0,3.064578056E0,8.503131087E0
1.657625862E0,2.892195702E0,-7.249642849E0,2.729389906E0,8.268717354E0
1.662661178E0,3.993528366E0,-6.770802498E0,2.518700123E0,8.254446413E0
1.667696493E0,5.363011837E0,-6.272808552E0,4.414907932E0,9.359563833E0
1.672731808E0,6.598419666E0,-5.880159378E0,4.730942726E0,1.002483095E1
1.677736606E0,7.173028469E0,-5.573701382E0,4.596867085E0,1.018084827E1
1.682771922E0,7.326257229E0,-5.181052685E0,3.821146011E0,9.752871820E0
1.687807237E0,7.738059998E0,-5.248090267E0,5.238513470E0,1.071737129E1
1.692842553E0,7.297526836E0,-4.999093056E0,4.558559895E0,9.951145543E0
1.697877869E0,7.824251175E0,-4.912901878E0,4.414907932E0,1.023947867E1
1.702882667E0,7.249642849E0,-4.596867085E0,4.127603531E0,9.524999703E0
1.707917982E0,6.981492043E0,-4.510675907E0,2.719813108E0,8.745559538E0
1.712953297E0,6.483498096E0,-4.750096321E0,3.485957623E0,8.760768412E0
1.717988613E0,5.822698593E0,-5.018246651E0,4.730942726E0,9.025986784E0
1.722993412E0,6.598419666E0,-5.458779812E0,6.445190907E0,1.071811107E1
1.728028727E0,7.891288757E0,-5.295974255E0,9.097966194E0,1.315647257E1
1.733064042E0,8.456320763E0,-4.865017891E0,1.057279491E1,1.438616531E1
1.738099358E0,8.475474358E0,-4.232948780E0,8.724471092E0,1.287897188E1
1.743134673E0,7.536946774E0,-3.773261786E0,5.688623428E0,1.016875153E1
1.748139472E0,7.115567684E0,-3.323152065E0,3.801992416E0,8.725238647E0
1.753174787E0,7.058106422E0,-3.275267839E0,4.721365929E0,9.101403294E0
1.758210103E0,7.326257229E0,-3.457227230E0,7.354987621E0,1.094176896E1
1.763245418E0,7.651868820E0,-3.620033026E0,8.092401505E0,1.171079407E1
1.768250216E0,7.115567684E0,-3.208230257E0,6.675034523E0,1.027035203E1
1.773285531E0,6.722918510E0,-2.863465309E0,3.878606796E0,8.272886894E0
1.778320847E0,7.393294811E0,-2.011129379E0,3.438073635E0,8.397964031E0
1.783356162E0,8.101978302E0,-1.302445769E0,2.786850691E0,8.666311451E0
1.788391478E0,8.408436775E0,-9.097966552E-1,1.503558636E0,8.590123837E0
1.793396276E0,8.705317497E0,-6.320692301E-1,3.639186621E-1,8.735817136E0
1.798431592E0,8.791508675E0,-6.799532771E-1,-7.565677166E-1,8.850161351E0
1.803466907E0,8.695740700E0,-6.416460276E-1,-1.264138460E0,8.810542661E0
1.808502222E0,8.044517517E0,-1.187524080E0,-1.513135433E0,8.271278883E0
1.813537538E0,7.307103634E0,-2.039859772E0,-7.278373241E-1,7.621321314E0
1.818542337E0,7.134721279E0,-2.719813108E0,6.703764796E-1,7.664922420E0
1.823577652E0,6.186617374E0,-3.265691042E0,1.493981838E0,7.153387607E0
1.828612967E0,7.211335659E0,-2.911349297E0,2.106897593E0,8.057191457E0
1.833648283E0,7.278373241E0,-2.384624958E0,1.024718285E0,7.727302297E0
1.838653082E0,7.565677166E0,-1.149216771E0,-2.394201756E-1,7.656206122E0
1.843688397E0,9.136273384E0,-1.053448766E-1,-6.607996821E-1,9.160744790E0
1.848723712E0,9.940725327E0,8.523358107E-1,-1.532289088E-1,9.978375391E0
1.853759028E0,9.739612579E0,1.120486379E0,3.830722570E-1,9.811334633E0
1.858794343E0,7.374141216E0,1.436520964E-1,7.565677166E-1,7.414242329E0
1.863799141E0,6.320692539E0,-1.455674648E0,4.884171486E-1,6.504513369E0
1.868834456E0,5.238513470E0,-1.637633920E0,1.474828243E0,5.683219737E0
1.873869772E0,6.531382084E0,-1.513135433E0,1.905784607E0,6.969974586E0
1.878905087E0,6.004657745E0,-2.930502892E0,4.232948780E0,7.909590205E0
1.883940404E0,5.899312973E0,-4.912901878E0,6.167463779E0,9.847644789E0
1.888945201E0,3.993528366E0,-6.636727333E0,8.973467827E0,1.185400959E1
1.893980517E0,3.026270866E0,-8.169015884E0,1.054406452E1,1.367729624E1
1.899015832E0,2.327163935E0,-8.245630264E0,1.229662037E1,1.498709388E1
1.904051148E0,1.053448796E0,-9.260771751E0,1.185608673E1,1.508106231E1
1.909086463E0,6.129156351E-1,-9.461885452E0,1.086009884E1,1.441681964E1
1.914091262E0,5.841852427E-1,-8.465897560E0,1.050575733E1,1.350494839E1
1.919126577E0,2.873042107E0,-7.029376030E0,7.967903137E0,1.100699681E1
1.924161893E0,5.018246651E0,-5.382165432E0,5.583278179E0,9.237072015E0
1.929197208E0,7.010222435E0,-4.357447147E0,3.916913986E0,9.136343875E0
1.934202007E0,7.431602001E0,-3.217807055E0,2.068590164E0,8.358352458E0
1.939237322E0,9.155426979E0,-2.710236311E0,2.346317768E0,9.832213947E0
1.944272637E0,1.063025570E1,-1.944091797E0,2.039859772E0,1.099740229E1
1.949307953E0,1.055364132E1,-1.771709204E0,2.011129379E0,1.088866107E1
1.954343268E0,9.605537415E0,-1.829170108E0,1.235408068E0,9.855883796E0
1.959348066E0,9.107542992E0,-1.599326730E0,1.034295082E0,9.304566172E0
1.964383381E0,7.680599213E0,-1.312022567E0,1.637633920E0,7.962088441E0
1.969418697E0,7.489062786E0,-7.948749661E-1,7.374141216E-1,7.567143927E0
1.974454013E0,7.996633530E0,1.149216816E-1,1.446097851E0,8.127149180E0
1.979489329E0,5.669469833E0,-4.596867263E-1,3.160346150E-1,5.696848072E0
1.984494126E0,4.290409565E0,-8.140285611E-1,1.244984865E-1,4.368724826E0
1.989529442E0,3.351882458E0,-1.302445769E0,4.501099288E-1,3.624097121E0
1.994564757E0,2.796427488E0,-1.934514999E0,1.264138460E0,3.627726702E0
1.999600073E0,2.547430515E0,-2.557007313E0,1.580173135E0,3.940131440E0
2.004604871E0,3.390189648E0,-2.528276920E0,1.762132406E0,4.581558758E0
2.009640187E0,3.332728863E0,-2.011129379E0,4.213795066E-1,3.915262921E0
2.014675502E0,3.610456228E0,-1.522712231E0,-1.005564690E0,4.045393313E0
2.019710818E0,3.313575268E0,-1.407790542E0,-1.886630893E0,4.064607163E0
2.024746133E0,3.466804028E0,-1.484405041E0,-1.417367458E0,4.028786294E0
2.029750932E0,3.734954596E0,-1.867477298E0,-1.819593310E-1,4.179768712E0
2.034786247E0,4.127603531E0,-2.489969730E0,1.130063176E0,4.951171876E0
2.039821563E0,4.740519524E0,-3.150769472E0,4.012681961E0,6.964301124E0
2.044856878E0,6.138733387E0,-4.510675907E0,7.613561630E0,1.077017017E1
2.049892193E0,6.502651691E0,-5.477933407E0,8.705317497E0,1.216859836E1
2.054896991E0,6.416460514E0,-5.592854977E0,6.445190907E0,1.067667917E1
2.059932307E0,5.286397457E0,-5.746084213E0,3.064578056E0,8.387795928E0
2.064967622E0,3.811569214E0,-5.736507416E0,1.608903527E0,7.072775110E0
2.070002938E0,2.911349297E0,-5.410895824E0,1.292868972E0,6.278953617E0
2.075007736E0,2.317587137E0,-5.276820660E0,1.340752959E0,5.917234566E0
2.080043052E0,2.920926094E0,-4.740519524E0,1.149216771E0,5.685510864E0
2.085078367E0,3.141192675E0,-4.539406300E0,1.101332784E0,5.629052751E0
2.090113682E0,1.331176162E0,-4.836287498E0,1.474828243E0,5.228462976E0
2.095148998E0,1.015141487E0,-4.989516258E0,1.340752959E0,5.265301817E0
2.100153797E0,3.045424461E0,-4.817133904E0,1.015141487E0,5.788773742E0
2.105189112E0,3.916913986E0,-4.367023945E0,1.120486379E0,5.972319737E0
2.110224427E0,4.912901878E0,-3.897760391E0,8.140285611E-1,6.323905710E0
2.115259743E0,5.114014626E0,-3.687070608E0,4.788403511E-1,6.322730687E0
2.120295058E0,4.759673119E0,-4.165910721E0,8.236053586E-1,6.378685297E0
2.125299857E0,5.908889771E0,-3.600879431E0,2.489969730E-1,6.924110808E0
2.130335172E0,7.556100368E0,-2.920926094E0,-1.043871999E0,8.167994293E0
2.135370488E0,9.576807022E0,-2.509123325E0,-1.034295082E0,9.953928818E0
2.140405803E0,9.911994934E0,-3.026270866E0,2.317587137E0,1.061965956E1
2.145441118E0,1.052491093E1,-4.472368717E0,5.219359875E0,1.257050315E1
2.150445916E0,1.035252857E1,-6.713341713E0,8.006210327E0,1.470861002E1
2.155481232E0,9.682151794E0,-8.734047890E0,1.018972206E1,1.654865830E1
2.160516547E0,1.176031876E1,-9.346963882E0,9.739612579E0,1.790337634E1
2.165551863E0,1.210508347E1,-8.552088737E0,1.052491093E1,1.817814670E1
2.170556661E0,1.250730991E1,-8.906430244E0,8.465897560E0,1.753364544E1
2.175591977E0,1.121444035E1,-9.442731857E0,6.761225700E0,1.614444270E1
2.180627292E0,1.078348446E1,-9.902418137E0,6.014234543E0,1.582758475E1
2.185662607E0,1.304361057E1,-9.366117477E0,5.726930618E0,1.704868522E1
2.190667406E0,1.655829811E1,-7.680599213E0,4.893748283E0,1.889755574E1
2.195702722E0,1.935472679E1,-5.535394192E0,3.112462282E0,2.036991555E1
2.200738037E0,2.170104408E1,-3.409343243E0,4.596867263E-1,2.197203330E1
2.205773352E0,1.991018105E1,-3.160346270E0,-1.924938202E0,2.025113540E1
2.210808668E0,1.824381638E1,-3.830722809E0,-3.361459255E0,1.894229874E1
2.215813467E0,1.681687355E1,-5.717353821E0,-4.185064793E0,1.824856537E1
2.220848782E0,1.642422295E1,-7.996633530E0,-2.059013367E0,1.838316576E1
2.225884097E0,1.626141739E1,-9.749189377E0,2.394201756E0,1.911053613E1
2.230919413E0,1.684560394E1,-1.041956615E1,6.186617374E0,2.075128829E1
2.235924211E0,1.749682617E1,-1.064940929E1,8.169015884E0,2.205179505E1
2.240959526E0,1.688391113E1,-1.099417400E1,9.385271072E0,2.222659736E1
2.245994841E0,1.561977196E1,-1.155920601E1,9.911994934E0,2.181376087E1
2.251030157E0,1.415452003E1,-1.196143150E1,1.001733971E1,2.106592927E1
2.256065473E0,1.322556973E1,-1.131978607E1,9.471462250E0,1.981822011E1
2.261070271E0,1.277546024E1,-1.014183807E1,8.149862289E0,1.823429514E1
2.266105586E0,1.202846909E1,-8.801085472E0,6.588842869E0,1.629588980E1
2.271140902E0,1.097502041E1,-7.565677166E0,4.673481941E0,1.412557883E1
2.276176217E0,9.921571732E0,-6.435614109E0,3.313575268E0,1.228146960E1
2.281211533E0,9.107542992E0,-5.698200226E0,1.857900500E0,1.090268863E1
2.286216331E0,9.270348549E0,-5.085284233E0,1.110909581E0,1.063172601E1
2.291251647E0,9.672574997E0,-4.395754337E0,-3.639186621E-1,1.063079489E1
2.296286962E0,9.155426979E0,-4.165910721E0,-9.864110947E-1,1.010691160E1
2.301322278E0,8.312667847E0,-4.596867085E0,-4.213795066E-1,9.508374962E0
2.306327076E0,8.485051155E0,-4.587290287E0,4.692635238E-1,9.657097573E0
2.311362392E0,9.557653427E0,-4.252102375E0,2.308010340E0,1.071242388E1
2.316397707E0,9.950302124E0,-4.070142746E0,3.763684988E0,1.139034236E1
2.321433023E0,9.921571732E0,-4.501099110E0,5.343858242E0,1.213483827E1
2.326468338E0,9.165003777E0,-4.999093056E0,6.071695328E0,1.207699092E1
2.331473136E0,8.236053467E0,-5.477933407E0,6.311115742E0,1.173330785E1
2.336508451E0,7.603984833E0,-5.477933407E0,6.751648903E0,1.155045898E1
2.341543767E0,7.872135162E0,-4.884171486E0,7.096413612E0,1.166982130E1
2.346579082E0,7.728483200E0,-4.194641590E0,6.090848923E0,1.069686455E1
2.351583881E0,7.201758862E0,-3.782838583E0,5.784391403E0,9.981702377E0
2.356619196E0,6.397306919E0,-4.309563160E0,6.828263283E0,1.030160424E1
2.361654512E0,5.420472622E0,-4.979939461E0,9.270348549E0,1.183725824E1
2.366689827E0,4.060565948E0,-6.052541733E0,7.575253963E0,1.051218007E1
2.371725142E0,2.959233284E0,-6.330269337E0,4.577713490E0,8.353731639E0
2.376729941E0,3.639186621E0,-5.765237808E0,4.855441093E0,8.370003253E0
2.381765256E0,6.483498096E0,-3.993528366E0,1.345541382E1,1.546066549E1
2.386800572E0,5.372588634E0,-5.018246651E0,5.784391403E0,9.354501162E0
2.391835887E0,6.502651691E0,-3.093308687E0,1.723825216E0,7.404364323E0
2.396840686E0,3.993528366E0,-1.292868972E0,-3.428496838E0,5.419812686E0
2.401876001E0,3.169923067E0,-1.905784607E0,-7.000645638E0,7.917668000E0
2.406911317E0,3.936067581E0,-1.254561663E0,-8.149862289E0,9.137111595E0
2.411946632E0,3.639186621E0,-1.379060149E0,-8.647856712E0,9.483191017E0
2.416981948E0,4.299986362E0,-1.695094824E0,-8.360552788E0,9.553118449E0
2.421986745E0,5.027823448E0,-1.647210717E0,-6.914454460E0,8.706433957E0
2.427022061E0,7.125144482E0,-1.340752959E0,-5.238513470E0,8.944681423E0
2.432057376E0,9.002198219E0,-4.979939461E-1,-4.625597477E0,1.013329772E1
2.437092692E0,1.024718285E1,9.576806426E-2,-5.746084213E0,1.174867701E1
2.442097490E0,9.528923035E0,-4.118026793E-1,-6.224924564E0,1.138945308E1
2.447132806E0,7.757213593E0,-1.493981838E0,-5.621585369E0,9.695801489E0
2.452168121E0,5.410895824E0,-2.624045134E0,-4.778826714E0,7.681184234E0
2.457203437E0,4.692635536E0,-3.256114244E0,-4.232948780E0,7.109216808E0
2.462208235E0,4.692635536E0,-3.552995205E0,-3.035847664E0,6.622761829E0
2.467243551E0,5.420472622E0,-3.859453201E0,-1.915361404E0,6.924269764E0
2.472278866E0,5.564124584E0,-4.165910721E0,-1.819593310E-1,6.953229733E0
2.477314182E0,6.378153324E0,-4.022258759E0,2.873041928E-1,7.545988938E0
2.482349497E0,7.211335659E0,-3.811569214E0,1.244984865E0,8.251145931E0
2.487354295E0,7.996633530E0,-3.591302633E0,2.518700123E0,9.120715582E0
2.492389611E0,8.714894295E0,-3.361459255E0,3.811569214E0,1.008845136E1
2.497424927E0,9.165003777E0,-3.160346270E0,4.319139957E0,1.061320181E1
2.502460242E0,9.346963882E0,-3.045424461E0,4.951209068E0,1.100703481E1
2.507495557E0,9.892841339E0,-2.461239338E0,4.826710701E0,1.127932378E1
2.512500355E0,1.083136845E1,-7.757213712E-1,3.476380825E0,1.140199587E1
2.517535671E0,1.211466026E1,5.363011956E-1,2.336740971E0,1.234961419E1
2.522570986E0,1.148259163E1,0.000000000E0,1.235408068E0,1.154885897E1
2.527606301E0,1.072602367E1,1.915361285E-1,-1.474828243E0,1.082863742E1
2.532641617E0,9.959878922E0,-2.489969730E-1,-3.284844637E0,1.049053821E1
2.537646416E0,1.004607010E1,-2.288856745E0,-1.532289028E0,1.041682770E1
2.542681731E0,8.992621422E0,-3.888183594E0,1.905784607E0,9.980842984E0
2.547717046E0,7.795520782E0,-2.480392933E0,3.438073635E0,8.873716453E0
2.552752362E0,8.255207062E0,-2.892195702E0,8.877699852E0,1.246301706E1
2.557757161E0,1.071644688E1,-4.625597477E0,1.177947235E1,1.658295373E1
2.562792476E0,9.950302124E0,-4.711789131E0,1.485362720E1,1.848890776E1
2.567827791E0,8.676587105E0,-3.974374771E0,1.199973869E1,1.533207577E1
2.572863107E0,7.910442352E0,-2.815581083E0,3.083731890E0,8.944942561E0
2.577898422E0,7.067683220E0,-1.800439715E0,-1.149216816E-1,7.294308484E0
2.582903221E0,6.904877663E0,-1.666364431E0,-2.193088770E0,7.433958858E0
2.587938536E0,7.192182064E0,-1.714248419E0,-1.848323703E0,7.621183044E0
2.592973852E0,7.374141216E0,-1.599326730E0,-1.896207690E0,7.780193331E0
2.598009167E0,8.274360657E0,-1.254561663E0,-2.767697096E0,8.814710231E0
2.603044482E0,8.456320763E0,-9.959878922E-1,-2.327163935E0,8.827063198E0
2.608049280E0,9.059659004E0,-1.465251446E0,-1.005564690E0,9.232309755E0
2.613084596E0,9.988609314E0,-1.647210717E0,-1.819593310E-1,1.012515325E1
2.618119911E0,1.080263805E1,-1.053448796E0,-8.236053586E-1,1.088508471E1
2.623155226E0,1.079306126E1,-1.187524080E0,-1.005564690E0,1.090465704E1
2.628160025E0,9.864110947E0,-1.972822189E0,-1.312022567E0,1.014465945E1
2.633195341E0,8.935160637E0,-2.987963676E0,-8.810662031E-1,9.462626495E0
2.638230656E0,8.149862289E0,-4.865017891E0,-2.585737705E-1,9.495025793E0
2.643265971E0,6.387730122E0,-6.406883717E0,1.312022567E0,9.141808261E0
2.648301287E0,4.510675907E0,-8.370129585E0,3.122039080E0,1.000761682E1
2.653306086E0,2.691082716E0,-9.557653427E0,4.137180328E0,1.075671540E1
2.658341401E0,5.841852427E-1,-1.019929886E1,4.539406300E0,1.117914036E1
2.663376716E0,1.149216816E-1,-1.094629002E1,4.108449936E0,1.169246907E1
2.668412032E0,7.469909191E-1,-1.166455078E1,4.252102375E0,1.243785009E1
2.673416830E0,3.064578176E-1,-1.199016190E1,4.587290287E0,1.284138353E1
2.678452146E0,1.264138460E0,-1.129105568E1,4.414907932E0,1.218923281E1
2.683487461E0,2.317587137E0,-1.067813969E1,5.190629482E0,1.209696291E1
2.688522777E0,5.008669853E0,-9.710882187E0,5.228936672E0,1.211320706E1
2.693527575E0,7.450755596E0,-8.427590370E0,4.156333923E0,1.199221206E1
2.698562890E0,8.772355080E0,-7.546523571E0,4.683058739E0,1.248339981E1
2.703598205E0,1.103248119E1,-6.588842869E0,4.089296341E0,1.348520805E1
2.708633521E0,1.486320400E1,-5.219359875E0,7.469909191E-1,1.577068629E1
2.713668836E0,1.854069710E1,-3.658340216E0,1.944091797E0,1.899790501E1
2.718673635E0,2.439212608E1,-6.416460276E-1,2.557007313E0,2.453417638E1
2.723708950E0,3.293463898E1,4.280832767E0,8.044517636E-1,3.322142556E1
2.728744266E0,3.656424713E1,7.211335659E0,-2.422932148E0,3.734726403E1
2.733779581E0,3.693774414E1,8.322244644E0,-3.907337189E0,3.806473410E1
2.738784380E0,3.512772751E1,8.188169479E0,-3.227383852E0,3.621352463E1
2.743819695E0,3.048297691E1,8.312667847E0,-1.752555609E0,3.164464851E1
2.748855011E0,2.712151718E1,8.504204750E0,-7.086837292E-1,2.843238339E1
2.753890326E0,2.468900871E1,8.121131897E0,3.256114423E-1,2.599242115E1
2.758925642E0,2.292687607E1,7.086836815E0,3.830722719E-2,2.399721587E1
2.763930439E0,2.233311272E1,6.445190907E0,-2.499546528E0,2.337854021E1
2.768965755E0,1.989102745E1,5.726930618E0,-4.769249916E0,2.124138536E1
2.774001071E0,1.613691902E1,4.299986362E0,-6.473921299E0,1.791093787E1
2.779036387E0,1.204762268E1,2.135627985E0,-5.707777023E0,1.350129022E1
2.784041184E0,7.287950039E0,-1.177947283E0,-3.687070608E0,8.252046124E0
2.789076500E0,2.164358377E0,-4.414907932E0,-1.321599364E0,5.091412782E0
2.794111815E0,-1.963245392E0,-6.320692539E0,1.570596337E0,6.802371608E0
2.799147131E0,-4.903325081E0,-8.121131897E0,1.034295082E0,9.542806005E0
2.804182446E0,-6.368576527E0,-9.653421402E0,3.256114423E-1,1.156950019E1
2.809187245E0,-6.904877663E0,-1.036210537E1,1.321599364E0,1.252186840E1
2.814222560E0,-7.220912457E0,-1.092713642E1,2.470816135E0,1.332849652E1
2.819257875E0,-7.326257229E0,-1.126232433E1,2.394201756E0,1.364720471E1
2.824293191E0,-6.943184853E0,-1.140597725E1,1.465251446E0,1.343320865E1
2.829328506E0,-6.071695328E0,-1.157835960E1,2.767697096E0,1.336353406E1
2.834333305E0,-3.869029999E0,-1.031422138E1,4.587290287E0,1.193297063E1
2.839368620E0,-2.049436569E0,-8.963891029E0,3.055001259E0,9.689404797E0
2.844403936E0,1.436520964E-1,-8.188169479E0,6.703764945E-2,8.189703865E0
2.849439251E0,1.666364431E0,-7.671022415E0,-2.279279947E0,8.174134351E0
2.854474567E0,2.834734917E0,-7.546523571E0,-4.280832767E0,9.127500712E0
2.859479364E0,2.930502892E0,-7.642292023E0,-4.654327869E0,9.415691290E0
2.864514681E0,2.135627985E0,-7.584830761E0,-3.495534420E0,8.620285694E0
2.869549996E0,4.213795066E-1,-7.192182064E0,-2.509123325E0,7.628941171E0
2.874585312E0,-7.374141216E-1,-6.866570473E0,-1.522712231E0,7.071931998E0
2.879590109E0,-1.561019540E0,-5.813121796E0,-9.385270476E-1,6.091797767E0
2.884625425E0,-1.532289028E0,-4.635174274E0,-6.033388376E-1,4.919021038E0
2.889660740E0,-3.734954596E-1,-3.955221176E0,-9.959878922E-1,4.095761870E0
2.894696056E0,8.236053586E-1,-3.667917013E0,-1.522712231E0,4.055933128E0
2.899731371E0,1.608903527E0,-3.840299606E0,-1.139639974E0,4.316856599E0
2.904736170E0,1.503558636E0,-4.299986362E0,-1.896207690E0,4.934184319E0
2.909771485E0,4.884171486E-1,-5.544970989E0,-1.312022567E0,5.718973492E0
2.914806801E0,3.256114423E-1,-6.828263283E0,-2.327163935E0,7.221280652E0
2.919842116E0,1.177947283E0,-7.192182064E0,-5.937620163E0,9.400551890E0
2.924877431E0,1.024718285E0,-8.034940720E0,-8.714894295E0,1.189788647E1
2.929882230E0,1.216254473E0,-8.983044624E0,-8.140285492E0,1.218353863E1
2.934917546E0,4.127603531E0,-9.825803757E0,-5.717353821E0,1.209428233E1
2.939952861E0,1.647210693E1,-9.979032516E0,-2.930502892E0,1.948074033E1
2.944988176E0,1.822466278E1,-1.114740276E1,-4.855441093E0,2.190840547E1
2.949992974E0,2.457408714E1,-1.060152531E1,-5.075707436E-1,2.676818496E1
2.955028290E0,2.864422989E1,-8.418013573E0,7.450755596E0,3.077123035E1
2.960063606E0,3.159388542E1,-6.694188118E0,8.877699852E0,3.349327254E1
2.965098921E0,3.280056381E1,-5.238513470E0,8.647856712E0,3.432352598E1
2.970134237E0,3.206314850E1,-3.830722809E0,5.631162167E0,3.277849777E1
2.975139035E0,2.871126747E1,-3.438073635E0,2.489969730E0,2.902339021E1
2.980174350E0,2.429635811E1,-3.878606796E0,6.224924326E-1,2.461186919E1
2.985209665E0,2.108812904E1,-4.395754337E0,-8.523358107E-1,2.155825408E1
2.990244981E0,1.765963173E1,-5.181052685E0,-1.493981838E0,1.846450328E1
2.995249780E0,1.453759289E1,-5.659893036E0,-1.877054095E0,1.571303052E1
3.000285095E0,1.167412758E1,-5.841852188E0,-1.982398987E0,1.320387812E1
3.005320410E0,1.025675964E1,-4.845864296E0,-1.101332784E0,1.139721251E1
3.010355726E0,1.063025570E1,-2.691082716E0,1.953668594E0,1.113827111E1
3.015360525E0,1.160709000E1,3.447650373E-1,5.698200226E0,1.293494828E1
3.020395840E0,8.513781548E0,-7.948749661E-1,2.288856745E0,8.851845437E0
3.025431155E0,4.022258759E0,-3.399766445E0,-3.093308687E0,6.107825803E0
3.030466471E0,3.447650373E-1,-6.177040577E0,-5.449203014E0,8.244301469E0
3.035501786E0,-1.503558636E0,-7.335834026E0,-6.272808552E0,9.768483841E0
3.040506584E0,-2.116474390E0,-7.297526836E0,-6.301538944E0,9.871309682E0
3.045541899E0,-2.432508945E0,-7.364564419E0,-5.803544998E0,9.686848992E0
3.050577215E0,-2.489969730E0,-7.489062786E0,-5.104437828E0,9.399005065E0
3.055612531E0,-2.480392933E0,-7.795520782E0,-3.897760391E0,9.061734350E0
3.060647846E0,-2.030282974E0,-8.446743965E0,-2.585737944E0,9.063971165E0
3.065652644E0,-1.714248419E0,-9.165003777E0,-1.149216771E0,9.394500575E0
3.070687960E0,-1.580173135E0,-1.083136845E1,-9.576806799E-3,1.094603039E1
3.075723275E0,-9.002198577E-1,-1.137724686E1,6.129156351E-1,1.142925227E1
3.080758590E0,-1.244984865E-1,-1.222000504E1,6.512228847E-1,1.223797835E1
3.085763389E0,5.746083856E-1,-1.275630665E1,3.447650373E-1,1.277389514E1
3.090798705E0,1.656787634E0,-1.285207462E1,-2.873042040E-2,1.295845642E1
3.095834020E0,3.380612850E0,-1.203804588E1,-5.363011956E-1,1.251521917E1
3.100869335E0,5.487510204E0,-1.053448772E1,-4.884171486E-1,1.188809283E1
3.105874134E0,8.207323074E0,-8.925583839E0,-6.703764945E-2,1.212562134E1
3.110909450E0,9.931148529E0,-8.006210327E0,1.340752989E-1,1.275715843E1
3.115944765E0,1.110909557E1,-7.613561630E0,2.681505978E-1,1.347034632E1
3.120980080E0,1.218169785E1,-7.259219646E0,-2.777273953E-1,1.418334110E1
3.126015396E0,1.285207462E1,-7.307103634E0,-6.512228847E-1,1.479843495E1
3.131020194E0,1.479616642E1,-6.387730122E0,-5.554547787E0,1.704648462E1
3.136055509E0,1.523670006E1,-6.157886982E0,-5.966350555E0,1.748353339E1
3.141090824E0,1.477701283E1,-5.295974255E0,-1.666364431E0,1.578557005E1
3.146126141E0,1.227746677E1,-7.077260017E0,-1.474828243E0,1.424776888E1
3.151130939E0,9.136273384E0,-9.433155060E0,1.244984865E-1,1.313283692E1
3.156166254E0,7.393294811E0,-1.042914295E1,3.936067581E0,1.337611524E1
3.161201569E0,5.458779812E0,-1.139640045E1,6.081272125E0,1.402348355E1
3.166236885E0,2.882618904E0,-1.311064816E1,6.837840080E0,1.506501390E1
3.171272200E0,1.034295082E0,-1.425986576E1,6.617573261E0,1.575454898E1
3.176276999E0,-6.991068721E-1,-1.451843929E1,6.004657745E0,1.572672072E1
3.181312314E0,-1.493981838E0,-1.402044487E1,4.434061527E0,1.478058719E1
3.186347630E0,-2.240972757E0,-1.335006905E1,2.183511972E0,1.371182070E1
3.191382945E0,-2.901772499E0,-1.291911221E1,-1.493981838E0,1.332500377E1
3.196387744E0,-3.256114244E0,-1.194227791E1,-4.932055473E0,1.332461830E1
3.201423059E0,-3.265691042E0,-1.068771648E1,-8.245630264E0,1.388821227E1
3.206458375E0,-3.734954596E0,-9.442731857E0,-1.272757626E1,1.628208427E1
3.211493690E0,-2.738966703E0,-8.044517517E0,-1.415452003E1,1.650959231E1
3.216529006E0,-1.867477298E0,-7.029376030E0,-1.286165142E1,1.477571237E1
3.221533803E0,2.643198729E0,-4.558559895E0,-7.450755596E0,9.125827458E0
3.226569119E0,9.346963882E0,-1.666364431E0,-1.493981838E0,9.611164652E0
3.231604434E0,7.987056732E0,-1.532289028E0,-1.733402014E0,8.315387390E0
3.236639750E0,5.114014626E0,-4.156333923E0,-2.442085743E0,7.027947072E0
3.241644548E0,2.164358377E0,-6.167463779E0,-4.194641590E0,7.766406809E0
3.246679864E0,5.937620401E-1,-7.307103634E0,-3.639186621E0,8.184741666E0
3.251715179E0,5.267243981E-1,-6.837840080E0,-2.078166962E0,7.166050061E0
3.256750494E0,2.126051188E0,-5.420472622E0,-2.681505978E-1,5.828680969E0
3.261785810E0,3.035847664E0,-4.223371983E0,1.359906554E0,5.376112701E0
3.266790609E0,3.141192675E0,-3.620033026E0,1.944091797E0,5.172158490E0
3.271825924E0,2.298433542E0,-3.505111217E0,1.436521053E0,4.430823189E0
3.276861239E0,1.637633920E0,-3.715801001E0,1.666364431E0,4.389281530E0
3.281896555E0,1.848323703E0,-3.878606796E0,1.561019540E0,4.571287914E0
3.286901354E0,1.838746905E0,-3.993528366E0,6.895300746E-1,4.450248388E0
3.291936669E0,1.905784607E0,-4.434061527E0,-1.819593310E-1,4.829702454E0
3.296971984E0,1.790862918E0,-5.123591423E0,-1.283292055E0,5.577205175E0
3.302007300E0,1.618480325E0,-5.861005783E0,-1.905784607E0,6.372039102E0
3.307042615E0,1.398213744E0,-6.244078159E0,-2.116474390E0,6.739657082E0
3.312047413E0,1.072602391E0,-6.751648903E0,-1.331176162E0,6.964715986E0
3.317082728E0,5.937620401E-1,-7.632715225E0,-4.692635238E-1,7.670143631E0
3.322118044E0,1.819593310E-1,-8.398859978E0,2.873041928E-1,8.405742193E0
3.327153359E0,-3.064578176E-1,-9.155426979E0,7.086837292E-1,9.187926436E0
3.332158158E0,-1.187524080E0,-1.060152531E1,4.501099288E-1,1.067731948E1
3.337193473E0,-2.355894566E0,-1.247857952E1,8.236053586E-1,1.272570280E1
3.342228789E0,-2.959233284E0,-1.412578964E1,1.790862918E0,1.454311468E1
3.347264104E0,-3.438073635E0,-1.520796967E1,2.518700123E0,1.579387672E1
3.352268903E0,-3.313575268E0,-1.579215431E1,3.141192675E0,1.643894797E1
3.357304218E0,-3.466804028E0,-1.624226379E1,3.687070608E0,1.701247639E1
3.362339534E0,-2.882618904E0,-1.598369026E1,4.692635536E0,1.690587692E1
3.367374849E0,-2.106897593E0,-1.518881512E1,5.066130638E0,1.614945206E1
3.372379647E0,-1.762132406E0,-1.524627686E1,4.481945515E0,1.598880559E1
3.377414962E0,-1.723825216E0,-1.572511673E1,2.911349297E0,1.608498754E1
3.382450279E0,-2.183511972E0,-1.637633896E1,1.618480325E0,1.660035183E1
3.387485594E0,-1.637633920E0,-1.519839191E1,6.119579315E0,1.646578916E1
3.392520910E0,-2.365471363E0,-1.579215431E1,5.075707436E0,1.675560797E1
3.397525707E0,-5.746083856E-1,-1.447055531E1,2.470816135E0,1.469122452E1
3.402561023E0,-1.388636947E0,-1.508347034E1,-2.116474390E0,1.529440597E1
3.407596338E0,-3.083731890E0,-1.615607262E1,-4.663905144E0,1.709620121E1
3.412631654E0,-4.807557106E0,-1.684560394E1,-5.975927353E0,1.850942153E1
3.417636452E0,-7.163451672E0,-1.712333107E1,-5.324704647E0,1.930999706E1
3.422671768E0,-8.303091049E0,-1.672110558E1,-4.328716755E0,1.916440663E1
3.427707083E0,-8.418013573E0,-1.571553993E1,-3.505111217E0,1.816939604E1
3.432742399E0,-7.173028469E0,-1.352245140E1,-2.566584110E0,1.552083707E1
3.437747197E0,-5.602431774E0,-1.093671322E1,-1.800439715E0,1.241936073E1
3.442782513E0,-4.118026733E0,-8.887276649E0,-1.359906554E0,9.888942120E0
3.447817828E0,-3.093308687E0,-7.316680431E0,-1.101332784E0,8.019682355E0
3.452853144E0,-2.365471363E0,-6.387730122E0,-7.565677166E-1,6.853535262E0
3.457857941E0,-1.742978811E0,-5.765237808E0,-5.937620401E-1,6.052148006E0
3.462893257E0,-1.292868972E0,-5.439626217E0,-3.351882398E-1,5.601195829E0
3.467928572E0,-1.158793569E0,-5.544970989E0,-3.256114423E-1,5.674110381E0
3.472963888E0,-1.264138460E0,-6.119579315E0,-4.118026793E-1,6.262338101E0
3.477999204E0,-1.359906554E0,-6.885724068E0,-4.979939461E-1,7.036372627E0
3.483004002E0,-1.283292055E0,-7.450755596E0,-5.746083856E-1,7.582266960E0
3.488039317E0,-1.072602391E0,-8.025363922E0,-5.363011956E-1,8.114466153E0
3.493074632E0,-9.002198577E-1,-8.379706383E0,-2.011129409E-1,8.430321540E0
3.498109948E0,-7.565677166E-1,-8.801085472E0,-9.576806799E-3,8.833549225E0
3.503114747E0,-5.458779931E-1,-9.165003777E0,2.298433632E-1,9.184122439E0
3.508150062E0,-4.692635238E-1,-9.595960617E0,4.692635238E-1,9.618881259E0
3.513185377E0,-5.458779931E-1,-1.007480049E1,5.075707436E-1,1.010233714E1
3.518220693E0,-6.129156351E-1,-1.058237171E1,3.256114423E-1,1.060510629E1
3.523256008E0,-7.278373241E-1,-1.094629002E1,2.873041928E-1,1.097422234E1
3.528260807E0,-6.607996821E-1,-1.107078838E1,2.489969730E-1,1.109328676E1
3.533296122E0,-4.118026793E-1,-1.104205799E1,5.746084079E-2,1.104988361E1
3.538331438E0,-3.351882398E-1,-1.126232433E1,1.915361360E-2,1.126732743E1
3.543366753E0,-1.723825186E-1,-1.108036518E1,-1.053448766E-1,1.108220672E1
3.548371551E0,-1.340752989E-1,-1.094629002E1,-1.723825186E-1,1.094846825E1
3.553406866E0,-9.576806799E-3,-1.072602367E1,-4.596867263E-1,1.073587386E1
3.558442182E0,2.106897533E-1,-1.032379818E1,-6.991068721E-1,1.034958692E1
3.563477497E0,2.777273953E-1,-1.010353088E1,-8.906430602E-1,1.014651240E1
3.568512814E0,3.447650373E-1,-9.931148529E0,-1.053448796E0,9.992813838E0
3.573517611E0,0.000000000E0,-1.013226128E1,-1.101332784E0,1.019194056E1
3.578552927E0,-1.340752989E-1,-1.014183807E1,-1.034295082E0,1.019532354E1
3.583588242E0,-1.340752989E-1,-1.018014526E1,-6.607996821E-1,1.020245020E1
3.588623558E0,-9.576806426E-2,-1.018972206E1,-2.489969730E-1,1.019321376E1
3.593658873E0,9.576806799E-3,-1.036210537E1,1.819593310E-1,1.036370728E1
3.598663672E0,2.106897533E-1,-1.035252857E1,5.746083856E-1,1.037060330E1
3.603698987E0,4.118026793E-1,-1.037168217E1,6.607996821E-1,1.040086673E1
3.608734303E0,4.501099288E-1,-1.040998936E1,4.692635238E-1,1.043027735E1
3.613769618E0,4.501099288E-1,-1.046745014E1,4.788403511E-1,1.048805985E1
3.618774417E0,3.830722570E-1,-1.057279491E1,3.351882398E-1,1.058504076E1
3.623809732E0,4.022258818E-1,-1.057279491E1,4.118026793E-1,1.058845406E1
3.628845048E0,3.830722570E-1,-1.072602367E1,3.639186621E-1,1.073902998E1
3.633880363E0,4.309563041E-1,-1.075475407E1,1.628057212E-1,1.076461630E1
3.638885161E0,2.968810201E-1,-1.089840603E1,-9.576806426E-2,1.090286952E1
3.643920476E0,3.256114423E-1,-1.102290440E1,-2.202665508E-1,1.102991213E1
3.648955792E0,1.723825186E-1,-1.115697956E1,-4.022258818E-1,1.116555840E1
3.653991107E0,2.489969730E-1,-1.115697956E1,-5.841852427E-1,1.117503758E1
3.659026422E0,2.202665508E-1,-1.123359394E1,-1.034295082E0,1.128325824E1
3.664031221E0,8.619125932E-2,-1.130063248E1,-1.474828243E0,1.139679085E1
3.669066537E0,-8.619125932E-2,-1.121444035E1,-1.877054095E0,1.137077101E1
3.674101852E0,-1.915361285E-1,-1.111867237E1,-2.231395960E0,1.134198789E1
3.679137167E0,-2.585737705E-1,-1.104205799E1,-2.442085743E0,1.131183839E1
3.684141966E0,-2.298433632E-1,-1.087925243E1,-2.777273893E0,1.123050363E1
3.689177282E0,9.576806799E-3,-1.048660374E1,-2.777273893E0,1.084814269E1
3.694212597E0,5.650315881E-1,-1.008437729E1,-2.633621931E0,1.043790642E1
3.699247912E0,9.768342972E-1,-9.873687744E0,-2.269703150E0,1.017818586E1
3.704283228E0,1.043871999E0,-9.758766174E0,-1.953668594E0,1.000699790E1
3.709288027E0,1.082179189E0,-9.797073364E0,-1.522712231E0,9.973585656E0
3.714323342E0,1.063025594E0,-9.720458984E0,-1.244984865E0,9.857349217E0
3.719358657E0,1.024718285E0,-9.605537415E0,-6.512228847E-1,9.681967147E0
3.724393973E0,1.072602391E0,-9.557653427E0,-5.363011956E-1,9.632592273E0
3.729398770E0,1.168370485E0,-9.385271072E0,-3.256114423E-1,9.463320004E0
3.734434086E0,9.768342972E-1,-9.318233490E0,9.576806799E-3,9.369299458E0
3.739469401E0,1.254561663E0,-9.212887764E0,7.182605267E-1,9.325616553E0
3.744504717E0,2.518700123E0,-8.485051155E0,3.734954596E0,9.606759560E0
3.749540032E0,2.336740971E0,-8.810662270E0,3.198653460E0,9.660202480E0
3.754544831E0,2.183511972E0,-8.877699852E0,1.896207690E0,9.336856152E0
3.759580146E0,2.547430515E0,-8.925583839E0,8.619126081E-1,9.321928044E0
3.764615462E0,2.269703150E0,-9.241618156E0,-1.474828243E0,9.629858612E0
3.769650777E0,1.484405041E0,-9.816226959E0,-3.122039080E0,1.040715610E1
3.774686092E0,1.130063176E0,-1.018014526E1,-4.491522312E0,1.118419300E1
3.779690891E0,1.254561663E0,-1.046745014E1,-5.181052685E0,1.174669078E1
3.784726207E0,1.474828243E0,-1.039083576E1,-5.085284233E0,1.166210538E1
3.789761522E0,1.714248419E0,-1.034295177E1,-4.663905144E0,1.147463770E1
3.794796837E0,2.068590164E0,-1.024718285E1,-3.821146011E0,1.113036290E1
3.799801635E0,2.049436569E0,-1.018972206E1,-3.007117271E0,1.082004530E1
3.804836952E0,2.059013367E0,-1.009395409E1,-2.470816135E0,1.059397836E1
3.809872267E0,1.752555609E0,-1.011310768E1,-1.829170108E0,1.042555809E1
3.814907582E0,1.896207690E0,-1.004607010E1,-1.513135433E0,1.033482979E1
3.819912380E0,1.848323703E0,-9.988609314E0,-1.158793569E0,1.022406079E1
3.824947696E0,1.905784607E0,-9.940725327E0,-9.959878922E-1,1.017064535E1
3.829983011E0,2.001552582E0,-9.854534149E0,-7.565677166E-1,1.008416832E1
3.835018326E0,2.068590164E0,-9.902418137E0,-7.948749661E-1,1.014735317E1
3.840053642E0,2.221819162E0,-9.787496567E0,-7.757213712E-1,1.006644491E1
3.845058441E0,2.135627985E0,-9.777919769E0,-8.236053586E-1,1.004225810E1
3.850093756E0,2.183511972E0,-9.672574997E0,-7.948749661E-1,9.947776526E0
3.855129071E0,2.250549555E0,-9.672574997E0,-8.714894056E-1,9.969111001E0
3.860164387E0,2.020706177E0,-9.768342972E0,-8.427590132E-1,1.001069531E1
3.865169186E0,1.963245392E0,-9.758766174E0,-7.278373241E-1,9.980861530E0
3.870204501E0,1.723825216E0,-9.768342972E0,-7.948749661E-1,9.951076525E0
3.875239816E0,1.570596337E0,-9.739612579E0,-1.005564690E0,9.916551134E0
3.880275132E0,1.628057122E0,-9.710882187E0,-1.446097851E0,9.952035060E0
3.885310447E0,1.493981838E0,-9.682151794E0,-1.982398987E0,9.995296436E0
3.890315245E0,1.340752959E0,-9.595960617E0,-2.336740971E0,9.966967293E0
3.895350561E0,1.158793569E0,-9.519346237E0,-2.422932148E0,9.890973436E0
3.900385877E0,1.063025594E0,-9.548076630E0,-2.624045134E0,9.958986073E0
3.905421192E0,9.193734527E-1,-9.509769440E0,-2.489969730E0,9.873242203E0
3.910425990E0,9.959878922E-1,-9.423578262E0,-2.403778553E0,9.776194069E0
3.915461305E0,9.385270476E-1,-9.471462250E0,-2.355894566E0,9.805083853E0
3.920496621E0,9.097966552E-1,-9.567230225E0,-2.202665567E0,9.859582127E0
3.925531936E0,9.672574997E-1,-9.634267807E0,-2.106897593E0,9.909274480E0
3.930536735E0,9.097966552E-1,-9.768342972E0,-1.848323703E0,9.983213655E0
3.935572050E0,8.714894056E-1,-9.835380554E0,-1.723825216E0,1.002326183E1
3.940607366E0,7.852981687E-1,-9.902418137E0,-1.599326730E0,1.006143251E1
3.945642681E0,7.565677166E-1,-9.998186111E0,-1.522712231E0,1.014173421E1
3.950647480E0,7.086837292E-1,-1.007480049E1,-1.647210717E0,1.023313934E1
3.955682795E0,9.385270476E-1,-1.008437729E1,-1.723825216E0,1.027361045E1
3.960718111E0,1.015141487E0,-9.988609314E0,-1.819593310E0,1.020361446E1
3.965753426E0,1.216254473E0,-9.854534149E0,-1.896207690E0,1.010874482E1
3.970788741E0,1.426944256E0,-9.816226959E0,-1.886630893E0,1.009722030E1
3.975793539E0,1.628057122E0,-9.682151794E0,-1.762132406E0,9.974955839E0
3.980828855E0,1.723825216E0,-9.624691010E0,-1.695094824E0,9.923688672E0
3.985864170E0,1.570596337E0,-9.653421402E0,-1.446097851E0,9.886683803E0
3.990899486E0,1.321599364E0,-9.567230225E0,-1.379060149E0,9.756040485E0
3.995904284E0,1.206677675E0,-9.548076630E0,-1.484405041E0,9.737828129E0
4.000939600E0,1.149216771E0,-9.490615845E0,-1.474828243E0,9.673035028E0
4.005974915E0,1.082179189E0,-9.595960617E0,-1.455674648E0,9.765887601E0
4.011010230E0,1.024718285E0,-9.662998199E0,-1.369483352E0,9.813208773E0
4.016015029E0,1.015141487E0,-9.701305389E0,-1.407790542E0,9.855339299E0
4.021050345E0,1.082179189E0,-9.797073364E0,-1.493981838E0,9.969239692E0
4.026085660E0,1.254561663E0,-9.921571732E0,-1.675941229E0,1.014003400E1
4.031120975E0,1.398213744E0,-9.998186111E0,-1.704671621E0,1.023839013E1
4.036156291E0,1.340752959E0,-9.998186111E0,-1.762132406E0,1.024043235E1
4.041161090E0,1.493981838E0,-9.911994934E0,-1.857900500E0,1.019467604E1
4.046196405E0,1.407790542E0,-9.969455719E0,-1.857900500E0,1.023834536E1
4.051231720E0,1.379060149E0,-9.835380554E0,-1.675941229E0,1.007200559E1
4.056267036E0,1.388636947E0,-9.854534149E0,-1.522712231E0,1.006771118E1
4.061271834E0,1.379060149E0,-9.768342972E0,-1.379060149E0,9.961131372E0
4.066307149E0,1.369483352E0,-9.816226959E0,-1.149216771E0,9.977699913E0
4.071342464E0,1.273715258E0,-9.672574997E0,-9.672574997E-1,9.803909664E0
4.076377780E0,1.264138460E0,-9.586383820E0,-8.044517636E-1,9.702780190E0
4.081382579E0,1.235408068E0,-9.586383820E0,-6.224924326E-1,9.685684522E0
4.086417894E0,1.130063176E0,-9.519346237E0,-5.554547906E-1,9.602266690E0
4.091453209E0,9.672574997E-1,-9.567230225E0,-6.991068721E-1,9.641381211E0
4.096488525E0,8.140285611E-1,-9.634267807E0,-8.427590132E-1,9.705256381E0
4.101493324E0,6.224924326E-1,-9.816226959E0,-1.244984865E0,9.914423627E0
4.106528639E0,5.171475410E-1,-9.854534149E0,-1.781286120E0,1.002757524E1
4.111563954E0,7.757213712E-1,-9.758766174E0,-2.317587137E0,1.006014269E1
4.116599270E0,6.895300746E-1,-9.595960617E0,-2.585737944E0,9.962125908E0
4.121634585E0,7.565677166E-1,-9.624691010E0,-2.748543501E0,1.003800593E1
4.126639383E0,7.374141216E-1,-9.567230225E0,-2.920926094E0,1.003032816E1
4.131674699E0,8.619126081E-1,-9.605537415E0,-2.940079689E0,1.008232666E1
4.136710015E0,1.015141487E0,-9.576807022E0,-2.968810081E0,1.007767723E1
4.141745330E0,1.206677675E0,-9.662998199E0,-2.786850691E0,1.012897537E1
4.146750128E0,1.484405041E0,-9.739612579E0,-2.681505919E0,1.021048410E1
4.151785443E0,1.570596337E0,-9.758766174E0,-2.537853718E0,1.020494937E1
4.156820759E0,1.685518026E0,-9.883264542E0,-2.489969730E0,1.033052943E1
4.161856074E0,1.829170108E0,-9.854534149E0,-2.489969730E0,1.032751935E1
4.166891389E0,1.924938202E0,-9.777919769E0,-2.260126352E0,1.021867277E1
4.171896188E0,2.126051188E0,-9.720458984E0,-2.193088770E0,1.018906546E1
4.176931504E0,2.126051188E0,-9.691728592E0,-1.944091797E0,1.011084515E1
4.181966819E0,2.298433542E0,-9.624691010E0,-1.752555609E0,1.004932460E1
4.187002134E0,2.403778553E0,-9.490615845E0,-1.599326730E0,9.920069880E0
4.192006933E0,2.480392933E0,-9.404424667E0,-1.283292055E0,9.810320633E0
4.197042249E0,2.451662540E0,-9.337387085E0,-1.120486379E0,9.718690061E0
4.202077564E0,2.288856745E0,-9.232041359E0,-8.427590132E-1,9.548805978E0
4.207112879E0,2.193088770E0,-9.318233490E0,-7.852981687E-1,9.604988649E0
4.212117677E0,2.059013367E0,-9.251194954E0,-7.852981687E-1,9.510038766E0
4.217152993E0,1.991975784E0,-9.251194954E0,-9.289502501E-1,9.508707807E0
4.222188309E0,1.972822189E0,-9.279925346E0,-9.097966552E-1,9.530832691E0
4.227223624E0,1.963245392E0,-9.356540680E0,-1.139639974E0,9.627978253E0
4.232258940E0,1.953668594E0,-9.356540680E0,-1.292868972E0,9.645371151E0
4.237263738E0,1.982398987E0,-9.423578262E0,-1.589749932E0,9.760176118E0
4.242299053E0,2.011129379E0,-9.538499832E0,-1.838746905E0,9.920111421E0
4.247334368E0,1.905784607E0,-9.682151794E0,-1.972822189E0,1.006320554E1
4.252369684E0,1.963245392E0,-9.739612579E0,-2.049436569E0,1.014468215E1
4.257374483E0,1.867477298E0,-9.806650162E0,-2.193088770E0,1.022093426E1
4.262409798E0,1.953668594E0,-9.864110947E0,-2.317587137E0,1.031933699E1
4.267445113E0,1.915361404E0,-9.892841339E0,-2.432508945E0,1.036600303E1
4.272480429E0,1.896207690E0,-9.892841339E0,-2.643198729E0,1.041395280E1
4.277515744E0,2.020706177E0,-9.883264542E0,-2.748543501E0,1.045546091E1
4.282520543E0,2.183511972E0,-9.892841339E0,-2.671929121E0,1.047736797E1
4.287555858E0,2.202665567E0,-9.777919769E0,-2.489969730E0,1.032760378E1
4.292591174E0,2.269703150E0,-9.672574997E0,-2.489969730E0,1.024256846E1
4.297626489E0,2.355894566E0,-9.615114212E0,-2.451662540E0,1.019859352E1
4.302631287E0,2.394201756E0,-9.528923035E0,-2.298433542E0,1.009036040E1
4.307666602E0,2.451662540E0,-9.490615845E0,-2.221819162E0,1.005081682E1
4.312701918E0,2.355894566E0,-9.442731857E0,-2.116474390E0,9.959663045E0
4.317737234E0,2.422932148E0,-9.471462250E0,-1.991975784E0,9.977332553E0
4.322772550E0,2.327163935E0,-9.452308655E0,-1.771709204E0,9.894482522E0
4.327777347E0,2.221819162E0,-9.404424667E0,-1.886630893E0,9.845763548E0
4.332812663E0,2.078166962E0,-9.356540680E0,-1.829170108E0,9.757535278E0
4.337847978E0,1.886630893E0,-9.337387085E0,-1.742978811E0,9.684221643E0
4.342883294E0,1.723825216E0,-9.289502144E0,-1.666364431E0,9.593914419E0
4.347888092E0,1.628057122E0,-9.193734169E0,-1.742978811E0,9.498067861E0
4.352923408E0,1.446097851E0,-9.193734169E0,-1.647210717E0,9.451415244E0
4.357958723E0,1.359906554E0,-9.270348549E0,-1.742978811E0,9.530303415E0
4.362994039E0,1.292868972E0,-9.251194954E0,-1.666364431E0,9.488566207E0
4.368029354E0,1.110909581E0,-9.270348549E0,-1.675941229E0,9.485898024E0
4.373034153E0,1.187524080E0,-9.423578262E0,-1.857900500E0,9.678111126E0
4.378069468E0,1.091755986E0,-9.433155060E0,-1.800439715E0,9.665295065E0
4.383104784E0,1.063025594E0,-9.481039047E0,-1.982398987E0,9.744230630E0
4.388140099E0,1.149216771E0,-9.528923035E0,-1.991975784E0,9.802501768E0
4.393144897E0,1.273715258E0,-9.500192642E0,-1.838746905E0,9.759969312E0
4.398180212E0,1.235408068E0,-9.528923035E0,-1.810016513E0,9.777666750E0
4.403215527E0,1.302445769E0,-9.519346237E0,-1.790862918E0,9.773510513E0
4.408250843E0,1.388636947E0,-9.519346237E0,-1.905784607E0,9.807052581E0
4.413286159E0,1.628057122E0,-9.461885452E0,-1.934514999E0,9.793885572E0
4.418290957E0,1.656787634E0,-9.500192642E0,-1.972822189E0,9.843303962E0
4.423326272E0,1.819593310E0,-9.548076630E0,-1.915361404E0,9.906830797E0
4.428361588E0,1.877054095E0,-9.490615845E0,-1.963245392E0,9.871648984E0
4.433396903E0,1.924938202E0,-9.528923035E0,-1.905784607E0,9.906451244E0
4.438401702E0,1.953668594E0,-9.528923035E0,-1.934514999E0,9.917637998E0
4.443437017E0,1.886630893E0,-9.471462250E0,-1.944091797E0,9.851267238E0
4.448472333E0,1.944091797E0,-9.586383820E0,-1.953668594E0,9.974721481E0
4.453507648E0,2.039859772E0,-9.528923035E0,-1.915361404E0,9.931264340E0
4.458542964E0,1.991975784E0,-9.672574997E0,-1.857900500E0,1.004880435E1
4.463547762E0,2.078166962E0,-9.691728592E0,-1.867477298E0,1.008641921E1
4.468583078E0,2.039859772E0,-9.730035782E0,-1.762132406E0,1.009652093E1
4.473618393E0,2.164358377E0,-9.710882187E0,-1.742978811E0,1.010067598E1
4.478653709E0,2.116474390E0,-9.710882187E0,-1.656787634E0,1.007599335E1
4.483658506E0,2.097320795E0,-9.662998199E0,-1.647210717E0,1.002425019E1
4.488693822E0,1.991975784E0,-9.672574997E0,-1.695094824E0,1.001998109E1
4.493729137E0,1.963245392E0,-9.653421402E0,-1.733402014E0,1.000237771E1
4.498764453E0,1.915361404E0,-9.576807022E0,-1.829170108E0,9.936282269E0
4.503769251E0,1.848323703E0,-9.519346237E0,-1.924938202E0,9.886336044E0
4.508804567E0,1.790862918E0,-9.346963882E0,-2.135627985E0,9.753657299E0
4.513839882E0,1.771709204E0,-9.385271072E0,-2.355894566E0,9.837301754E0
4.518875198E0,1.714248419E0,-9.337387085E0,-2.365471363E0,9.783705841E0
4.523879996E0,1.599326730E0,-9.327810287E0,-2.403778553E0,9.764427381E0
4.528915312E0,1.704671621E0,-9.366117477E0,-2.384624958E0,9.814096908E0
4.533950627E0,1.742978811E0,-9.289502144E0,-2.269703150E0,9.720307485E0
4.538985943E0,1.886630893E0,-9.251194954E0,-2.154781580E0,9.684372352E0
4.543990740E0,1.934514999E0,-9.241618156E0,-1.886630893E0,9.628563265E0
4.549026057E0,2.011129379E0,-9.241618156E0,-1.628057122E0,9.597016074E0
4.554061372E0,2.097320795E0,-9.251194954E0,-1.417367458E0,9.591261289E0
4.559096688E0,2.308010340E0,-9.356540680E0,-1.522712231E0,9.756557680E0
4.564101485E0,2.394201756E0,-9.452308655E0,-1.714248419E0,9.900352953E0
4.569136801E0,2.528276920E0,-9.557653427E0,-1.982398987E0,1.008319537E1
4.574172116E0,2.537853718E0,-9.691728592E0,-2.260126352E0,1.027027145E1
4.579207432E0,2.442085743E0,-9.730035782E0,-2.489969730E0,1.033621441E1
4.584212230E0,2.480392933E0,-9.797073364E0,-2.853888512E0,1.050141301E1
4.589247546E0,2.279279947E0,-9.883264542E0,-3.074155092E0,1.059832367E1
4.594282861E0,2.193088770E0,-9.911994934E0,-3.323152065E0,1.068178925E1
4.599318177E0,2.116474390E0,-9.931148529E0,-3.562572241E0,1.076099883E1
4.604322975E0,1.991975784E0,-1.003649330E1,-3.801992416E0,1.091578269E1
4.609358291E0,1.819593310E0,-1.012268448E1,-3.974374771E0,1.102611970E1
4.614393606E0,1.580173135E0,-1.011310768E1,-4.079719543E0,1.101889312E1
4.619428922E0,1.541865945E0,-1.008437729E1,-4.137180328E0,1.100855472E1
4.624464237E0,1.379060149E0,-1.009395409E1,-4.165910721E0,1.100656750E1
4.629469035E0,1.254561663E0,-1.014183807E1,-4.367023945E0,1.111313199E1
4.634504350E0,1.302445769E0,-1.007480049E1,-4.587290287E0,1.114635376E1
4.639539665E0,1.225831270E0,-1.011310768E1,-4.625597477E0,1.118810803E1
4.644574982E0,1.130063176E0,-1.013226128E1,-4.683058739E0,1.121921568E1
4.649579780E0,1.015141487E0,-1.013226128E1,-4.472368717E0,1.112183945E1
4.654615095E0,1.043871999E0,-1.020887566E1,-4.079719543E0,1.104332026E1
4.659650410E0,1.197100878E0,-1.014183807E1,-3.849876404E0,1.091382052E1
4.664685726E0,1.513135433E0,-9.969455719E0,-3.457227230E0,1.065983331E1
4.669690525E0,1.628057122E0,-9.998186111E0,-3.131615877E0,1.060289175E1
4.674725840E0,1.953668594E0,-9.969455719E0,-2.806004286E0,1.053947477E1
4.679761155E0,2.317587137E0,-9.892841339E0,-2.643198729E0,1.049885801E1
4.684796471E0,2.461239338E0,-9.988609314E0,-2.509123325E0,1.058894305E1
4.689801270E0,2.614468336E0,-9.940725327E0,-2.662352324E0,1.061798402E1
4.694836585E0,2.815581083E0,-9.911994934E0,-2.738966703E0,1.066194537E1
4.699871900E0,2.624045134E0,-9.854534149E0,-2.901772499E0,1.060272323E1
4.704907216E0,2.585737944E0,-9.825803757E0,-2.959233284E0,1.058251018E1
4.709912014E0,2.346317768E0,-9.854534149E0,-3.016694069E0,1.056964964E1
4.714947329E0,2.164358377E0,-9.844957352E0,-2.940079689E0,1.050008100E1
4.719982644E0,2.126051188E0,-9.825803757E0,-2.652775526E0,1.039729441E1
4.725017960E0,1.915361404E0,-9.739612579E0,-2.499546528E0,1.023603416E1
4.730022759E0,1.924938202E0,-9.730035782E0,-2.509123325E0,1.023106462E1
4.735058074E0,2.020706177E0,-9.634267807E0,-2.566584110E0,1.017298991E1
4.740093389E0,1.838746905E0,-9.662998199E0,-2.806004286E0,1.022879193E1
4.745128705E0,1.905784607E0,-9.682151794E0,-2.959233284E0,1.030209396E1
4.750133504E0,2.001552582E0,-9.701305389E0,-3.457227230E0,1.049161375E1
4.755168819E0,2.049436569E0,-9.662998199E0,-3.983951569E0,1.065108420E1
4.760204134E0,2.030282974E0,-9.662998199E0,-4.395754337E0,1.080824867E1
4.765239450E0,2.145204782E0,-9.691728592E0,-4.683058739E0,1.097554308E1
4.770244248E0,2.269703150E0,-9.758766174E0,-5.056553841E0,1.122291434E1
4.775279563E0,2.288856745E0,-9.701305389E0,-5.228936672E0,1.125593044E1
4.780314878E0,2.432508945E0,-9.720458984E0,-5.075707436E0,1.123241864E1
4.785350195E0,2.499546528E0,-9.643844604E0,-4.855441093E0,1.108272439E1
4.790354993E0,2.451662540E0,-9.720458984E0,-4.548983097E0,1.100868835E1
4.795390308E0,2.480392933E0,-9.883264542E0,-4.424484730E0,1.110888528E1
4.800425623E0,2.614468336E0,-9.921571732E0,-4.587290287E0,1.123905078E1
4.805460939E0,2.710236311E0,-1.002691650E1,-4.884171486E0,1.147778579E1
4.810465738E0,2.815581083E0,-1.012268448E1,-4.951209068E0,1.161510694E1
4.815501053E0,2.806004286E0,-1.012268448E1,-5.008669853E0,1.163740413E1
4.820536368E0,2.863465309E0,-1.013226128E1,-5.018246651E0,1.166383091E1
4.825571684E0,2.719813108E0,-1.006522369E1,-4.711789131E0,1.144146268E1
4.830606999E0,2.930502892E0,-9.959878922E0,-4.711789131E0,1.140122766E1
4.835611798E0,2.815581083E0,-9.864110947E0,-4.395754337E0,1.116023467E1
4.840647113E0,3.150769472E0,-9.730035782E0,-4.242525578E0,1.107248698E1
4.845682429E0,3.217807055E0,-9.691728592E0,-3.964797974E0,1.095461128E1
4.850717744E0,3.294421434E0,-9.701305389E0,-4.347870350E0,1.112980303E1
4.855722542E0,3.208230257E0,-9.749189377E0,-4.893748283E0,1.137049723E1
4.860757857E0,3.227383852E0,-9.825803757E0,-5.267243862E0,1.160630363E1
4.865793173E0,3.141192675E0,-9.873687744E0,-5.573701382E0,1.176532822E1
4.870828488E0,2.987963676E0,-9.749189377E0,-5.755661011E0,1.170906717E1
4.875833287E0,3.342305660E0,-9.528923035E0,-5.947196960E0,1.171923773E1
4.880868602E0,3.543418407E0,-9.519346237E0,-5.679046631E0,1.163723925E1
4.885903918E0,3.495534420E0,-9.461885452E0,-5.746084213E0,1.160876914E1
4.890939233E0,3.562572241E0,-9.174580574E0,-5.602431774E0,1.132484399E1
4.895944032E0,3.342305660E0,-8.992621422E0,-5.257667065E0,1.093989534E1
4.900979347E0,3.371036053E0,-8.657433510E0,-4.836287498E0,1.047400190E1
4.906014663E0,3.189076662E0,-8.312667847E0,-4.520252705E0,9.985156043E0
4.911049978E0,3.064578056E0,-8.006210327E0,-4.539406300E0,9.700373808E0
4.916085293E0,2.873042107E0,-7.709329605E0,-4.376600742E0,9.318946720E0
4.921090092E0,2.844311714E0,-7.354987621E0,-4.204218388E0,8.936520816E0
4.926125408E0,2.940079689E0,-7.067683220E0,-4.089296341E0,8.678626576E0
4.931160723E0,2.815581083E0,-6.636727333E0,-4.616020679E0,8.560449372E0
4.936196038E0,2.442085743E0,-6.330269337E0,-4.625597477E0,8.211713869E0
4.941200836E0,2.566584110E0,-5.985504150E0,-4.721365929E0,8.043936236E0
4.946236152E0,2.624045134E0,-5.717353821E0,-4.721365929E0,7.865433479E0
4.951271467E0,2.806004286E0,-5.410895824E0,-4.826710701E0,7.774869122E0
4.956306782E0,2.882618904E0,-5.046977043E0,-4.970362663E0,7.647612309E0
4.961311581E0,2.987963676E0,-4.941632271E0,-4.922478676E0,7.588046702E0
4.966346897E0,3.007117271E0,-4.817133904E0,-4.683058739E0,7.360609518E0
4.971382212E0,3.093308687E0,-4.606443882E0,-4.654327869E0,7.242282222E0
4.976417527E0,3.246537447E0,-4.414907932E0,-4.568136692E0,7.134373854E0
4.981422326E0,3.390189648E0,-4.232948780E0,-4.654327869E0,7.146608226E0
4.986457642E0,3.476380825E0,-4.156333923E0,-5.018246651E0,7.385332408E0
4.991492957E0,3.687070608E0,-4.012681961E0,-4.730942726E0,7.216503673E0
4.996528272E0,3.495534420E0,-3.916913986E0,-5.094861031E0,7.315639752E0
5.001533070E0,3.533841610E0,-4.041412354E0,-5.477933407E0,7.669993790E0
5.006568386E0,3.524264812E0,-4.156333923E0,-5.880159378E0,8.016971277E0
5.011603701E0,3.179499865E0,-4.252102375E0,-6.540958881E0,8.424591212E0
5.016639017E0,2.911349297E0,-4.434061527E0,-6.828263283E0,8.646504254E0
5.021643815E0,2.700659513E0,-4.663905144E0,-6.598419666E0,8.519666372E0
5.026679131E0,2.681505919E0,-4.960785866E0,-6.196194172E0,8.378107938E0
5.031714446E0,2.403778553E0,-5.363011837E0,-5.008669853E0,7.721840519E0
5.036749761E0,2.030282974E0,-6.014234543E0,-3.332728863E0,7.169389637E0
5.041754560E0,1.455674648E0,-6.387730122E0,-1.254561663E0,6.670532944E0
5.046789876E0,1.168370485E0,-6.751648903E0,1.532289088E-1,6.853709331E0
5.051825191E0,8.044517636E-1,-6.933608055E0,7.182605267E-1,7.016976663E0
5.056860506E0,2.873041928E-1,-7.125144482E0,1.628057212E-1,7.132792811E0
5.061865305E0,-2.585737705E-1,-7.153874874E0,-9.002198577E-1,7.214927713E0
5.066900621E0,-3.256114423E-1,-6.818686485E0,-1.867477298E0,7.077286179E0
5.071935936E0,-1.723825186E-1,-6.157886982E0,-2.001552582E0,6.477306582E0
5.076971251E0,3.351882398E-1,-5.190629482E0,-1.388636947E0,5.383613856E0
5.081976049E0,6.320692301E-1,-4.299986362E0,-2.681505978E-1,4.354457368E0
5.087011365E0,9.959878922E-1,-3.380612850E0,9.672574997E-1,3.654602878E0
5.092046680E0,1.436521053E0,-2.748543501E0,2.135627985E0,3.765500100E0
5.097081995E0,1.656787634E0,-2.059013367E0,2.873042107E0,3.903697254E0
5.102086794E0,1.963245392E0,-1.675941229E0,3.294421434E0,4.185250776E0
5.107122110E0,2.106897593E0,-1.532289028E0,3.332728863E0,4.230131062E0
5.112157425E0,2.327163935E0,-1.742978811E0,2.537853718E0,3.859322299E0
5.117192740E0,2.413355350E0,-2.317587137E0,4.022258818E-1,3.370056357E0
5.122197539E0,2.384624958E0,-2.949656487E0,-3.055001259E0,4.870312338E0
5.127232855E0,2.346317768E0,-4.386177540E0,-6.397306919E0,8.103659439E0
5.132268170E0,1.963245392E0,-6.387730122E0,-1.184650993E1,1.360136854E1
5.137303485E0,1.321599364E0,-9.069235802E0,-1.783201408E1,2.004939872E1
5.142308283E0,4.692635238E-1,-1.259350109E1,-2.205538559E1,2.540189976E1
5.147343598E0,-4.022258818E-1,-1.722867584E1,-2.251507187E1,2.835343927E1
5.152378914E0,7.469909191E-1,-2.183511925E1,-1.975695229E1,2.945619785E1
5.157414230E0,1.666364431E0,-2.409524536E1,-1.488235760E1,2.836974069E1
5.162449546E0,1.800439715E0,-2.406651497E1,-9.117119789E0,2.579846118E1
5.167454343E0,-2.873042040E-2,-2.213199997E1,-4.089296341E0,2.250663441E1
5.172489659E0,-2.365471363E0,-1.913446045E1,-1.608903527E0,1.934713421E1
5.177524974E0,-3.715801001E0,-1.563892555E1,-1.072602391E0,1.611004796E1
5.182560290E0,-4.156333923E0,-1.270842266E1,-1.465251446E0,1.345087655E1
5.187565088E0,-4.309563160E0,-1.045787334E1,-3.217807055E0,1.175983553E1
5.192600404E0,-4.146757126E0,-8.772355080E0,-5.200206280E0,1.100872171E1
5.197635719E0,-3.811569214E0,-7.354987621E0,-5.822698593E0,1.012559735E1
5.202671035E0,-2.537853718E0,-6.263231754E0,-5.027823448E0,8.423050643E0
5.207675833E0,-1.589749932E0,-5.726930618E0,-2.518700123E0,6.455144418E0
5.212711149E0,-1.340752959E0,-5.688623428E0,2.106897533E-1,5.848285662E0
5.217746464E0,-1.177947283E0,-5.755661011E0,2.011129379E0,6.209656581E0
5.222781780E0,-1.264138460E0,-5.861005783E0,2.844311714E0,6.636229650E0
5.227786577E0,-1.331176162E0,-6.129156113E0,3.016694069E0,6.959815208E0
5.232821893E0,-1.350329757E0,-6.627150536E0,2.183511972E0,7.107055593E0
5.237857208E0,-9.385270476E-1,-7.240066051E0,6.512228847E-1,7.329630325E0
5.242892524E0,-2.298433632E-1,-8.082824707E0,-1.149216771E0,8.167348554E0
5.247897322E0,9.385270476E-1,-8.820239067E0,-2.480392933E0,9.210309404E0
5.252932638E0,1.800439715E0,-9.452308655E0,-3.734954596E0,1.032170567E1
5.257967953E0,2.183511972E0,-1.011310768E1,-3.485957623E0,1.091762667E1
5.263003269E0,2.221819162E0,-1.068771648E1,-2.997540474E0,1.132029209E1
5.268008067E0,2.269703150E0,-1.115697956E1,-2.806004286E0,1.172618460E1
5.273043383E0,1.944091797E0,-1.150174522E1,-2.240972757E0,1.187819831E1
5.278078698E0,2.288856745E0,-1.162624359E1,-1.905784607E0,1.200168406E1
5.283114014E0,3.208230257E0,-1.136767006E1,-1.924938202E0,1.196754156E1
5.288118811E0,4.003105164E0,-1.122401714E1,-9.576807022E-1,1.195493890E1
5.293154128E0,4.491522312E0,-1.121444035E1,-3.734954596E-1,1.208622951E1
5.298189443E0,5.085284233E0,-1.106121159E1,8.619126081E-1,1.220464710E1
5.303224759E0,5.181052685E0,-1.116655636E1,1.924938202E0,1.245956159E1
5.308260074E0,5.343858242E0,-1.108994198E1,2.039859772E0,1.247816741E1
5.313264872E0,5.544970989E0,-1.115697956E1,1.656787634E0,1.256860539E1
5.318300187E0,6.167463779E0,-1.094629002E1,1.235408068E0,1.262478149E1
5.323335503E0,6.732495308E0,-1.077390766E1,2.585737705E-1,1.270710194E1
5.328370818E0,7.230489254E0,-1.059194851E1,-4.979939461E-1,1.283422557E1
5.333375617E0,7.584830761E0,-1.054406452E1,-1.589749932E0,1.308565089E1
5.338410932E0,8.025363922E0,-1.043871975E1,-2.308010340E0,1.336788120E1
5.343446248E0,8.197746277E0,-1.058237171E1,-2.949656487E0,1.370730128E1
5.348481563E0,8.734047890E0,-1.064940929E1,-3.064578056E0,1.410975370E1
5.353516878E0,8.810662270E0,-1.090798283E1,-2.901772499E0,1.431894349E1
5.358521677E0,8.810662270E0,-1.133893967E1,-2.815581083E0,1.463307279E1
5.363556993E0,8.657433510E0,-1.180820274E1,-2.557007313E0,1.486348187E1
5.368592308E0,9.394847870E0,-1.219127464E1,-2.671929121E0,1.562144517E1
5.373627623E0,9.959878922E0,-1.246900272E1,-2.509123325E0,1.615459430E1
5.378632421E0,1.012268448E1,-1.279461384E1,-2.250549555E0,1.646923974E1
5.383667736E0,9.394847870E0,-1.317768574E1,-2.049436569E0,1.631302419E1
5.388703053E0,8.935160637E0,-1.327345467E1,-1.235408068E0,1.604829983E1
5.393738368E0,8.552088737E0,-1.357991219E1,-9.385270476E-1,1.607585362E1
5.398773684E0,9.222464561E0,-1.397256088E1,-1.532289088E-1,1.674245470E1
5.403778481E0,1.052491093E1,-1.414494324E1,-1.053448766E-1,1.763134331E1
5.408813797E0,1.125274754E1,-1.453759289E1,3.256114423E-1,1.838673318E1
5.413849112E0,8.954314232E0,-1.504516315E1,1.436520964E-1,1.750877819E1
5.418884428E0,5.248090267E0,-1.603157425E1,-1.905784607E0,1.697603721E1
5.423889226E0,2.978386879E0,-1.686475754E1,-2.700659513E0,1.733736996E1
5.428924542E0,2.700659513E0,-1.754471016E1,-2.020706177E0,1.786599199E1
5.433959857E0,4.185064793E0,-1.822466278E1,-1.398213744E0,1.875121603E1
5.438995173E0,6.282385349E0,-1.881842613E1,-1.369483352E0,1.988660384E1
5.444030488E0,8.398859978E0,-1.943134117E1,-2.288856745E0,2.129217541E1
5.449035287E0,1.018972206E1,-1.985272026E1,-4.137180328E0,2.269531226E1
5.454070602E0,1.150174522E1,-1.986229706E1,-7.163451672E0,2.404404349E1
5.459105918E0,1.084094524E1,-1.937388039E1,-1.125274754E1,2.488970996E1
5.464141233E0,9.308655739E0,-1.814804840E1,-1.516966152E1,2.541891743E1
5.469146031E0,6.272808552E0,-1.665406609E1,-1.679771996E1,2.447180909E1
5.474181346E0,3.016694069E0,-1.500685596E1,-1.540908241E1,2.171971431E1
5.479216662E0,3.543418646E-1,-1.350329781E1,-1.185608673E1,1.797307437E1
5.484251978E0,-1.819593310E0,-1.206677628E1,-7.680599213E0,1.441907118E1
5.489287293E0,-3.342305660E0,-1.061110210E1,-4.836287498E0,1.213079436E1
5.494292091E0,-4.079719543E0,-9.308655739E0,-2.873042107E0,1.056170224E1
5.499327407E0,-4.031835556E0,-7.939172745E0,-2.269703150E0,9.188999631E0
5.504362722E0,-3.208230257E0,-6.483498096E0,-2.116474390E0,7.537105067E0
5.509398037E0,-2.470816135E0,-5.209783077E0,-2.758120298E0,6.391713359E0
5.514402836E0,-1.493981838E0,-3.926490784E0,-3.792415380E0,5.659657766E0
5.519438152E0,-3.734954596E-1,-2.738966703E0,-4.711789131E0,5.462819261E0
5.524473467E0,8.140285611E-1,-1.580173135E0,-5.382165432E0,5.668094422E0
5.529508782E0,1.695094824E0,-5.746083856E-1,-5.995080948E0,6.256557906E0
5.534544098E0,2.308010340E0,3.064578176E-1,-7.086836815E0,7.459496241E0
5.539548897E0,2.920926094E0,1.120486379E0,-8.350975990E0,8.917740687E0
5.544584212E0,3.447650433E0,1.685518026E0,-9.414001465E0,1.016615405E1
5.549619527E0,3.830722809E0,2.087743998E0,-9.701305389E0,1.063712548E1
5.554654843E0,4.079719543E0,2.193088770E0,-9.854534149E0,1.088878291E1
5.559659641E0,4.232948780E0,2.327163935E0,-9.720458984E0,1.085453224E1
5.564694956E0,4.577713490E0,2.212242365E0,-9.346963882E0,1.064026367E1
5.569730271E0,5.008669853E0,2.020706177E0,-9.059659004E0,1.054739060E1
5.574765588E0,5.458779812E0,1.762132406E0,-8.916007042E0,1.060181915E1
5.579800903E0,6.052541733E0,1.340752959E0,-8.561665535E0,1.057038299E1
5.584805701E0,6.253654957E0,7.948749661E-1,-7.623138428E0,9.892030430E0
5.589841016E0,6.004657745E0,1.244984865E-1,-5.985504150E0,8.479249639E0
5.594876332E0,5.679046631E0,-6.799532771E-1,-4.319139957E0,7.167208457E0
5.599911647E0,4.912901878E0,-1.388636947E0,-2.384624958E0,5.634833948E0
5.604916446E0,4.146757126E0,-2.145204782E0,-8.523358107E-1,4.745942957E0
5.609951761E0,3.754108191E0,-2.691082716E0,4.501099288E-1,4.640889294E0
5.614987077E0,3.907337189E0,-3.390189648E0,1.034295082E0,5.275456006E0
5.620022392E0,4.721365929E0,-4.041412354E0,1.130063176E0,6.316751762E0
5.625027191E0,5.889736176E0,-4.750096321E0,9.097966552E-1,7.621032557E0
5.630062506E0,7.412448406E0,-5.439626217E0,3.064578176E-1,9.199339169E0
5.635097822E0,9.002198219E0,-6.138733387E0,-7.086837292E-1,1.091905916E1
5.640133137E0,1.027591324E1,-6.962338448E0,-1.331176162E0,1.248361244E1
5.645168452E0,1.172201157E1,-7.805097580E0,-1.628057122E0,1.417658892E1
5.650173250E0,1.294784260E1,-8.820239067E0,-1.149216771E0,1.570872192E1
5.655208566E0,1.348414421E1,-9.950302124E0,-3.639186621E-1,1.676195377E1
5.660243881E0,1.388636971E1,-1.101332760E1,-2.873042040E-2,1.772358524E1
5.665279196E0,1.386721611E1,-1.202846909E1,-1.340752989E-1,1.835760680E1
5.670283995E0,1.255519390E1,-1.348414421E1,-3.447650373E-1,1.842753109E1
5.675319311E0,1.063025570E1,-1.545696640E1,-9.576806426E-2,1.875977926E1
5.680354626E0,1.040998936E1,-1.768836212E1,-3.447650373E-1,2.052717457E1
5.685389941E0,1.111867237E1,-1.988145065E1,-8.523358107E-1,2.279525020E1
5.690425257E0,1.242111874E1,-2.207453918E1,-1.637633920E0,2.538210621E1
5.695430056E0,1.317768574E1,-2.420059013E1,-2.068590164E0,2.763329567E1
5.700465371E0,1.339795303E1,-2.638410187E1,-1.465251446E0,2.962723306E1
5.705500686E0,1.384806252E1,-2.814623451E1,-6.991068721E-1,3.137623469E1
5.710536002E0,1.455674648E1,-2.928587532E1,6.607996821E-1,3.271082417E1
5.715540801E0,1.556231117E1,-2.991794395E1,1.436521053E0,3.375399965E1
5.720576116E0,1.606030464E1,-3.021482468E1,2.240972757E0,3.429126674E1
5.725611431E0,1.586876869E1,-3.053086090E1,3.505111217E0,3.458666060E1
5.730646747E0,1.597411346E1,-3.009990311E1,4.472368717E0,3.436827825E1
5.735682062E0,1.471955204E1,-2.983175278E1,3.610456228E0,3.346093364E1
5.740686860E0,1.343626022E1,-2.908476257E1,2.279279947E0,3.211933405E1
5.745722175E0,1.289995861E1,-2.756204987E1,4.596867263E-1,3.043496077E1
5.750757491E0,1.214339066E1,-2.562753487E1,-9.002198577E-1,2.837327749E1
5.755792806E0,1.153047562E1,-2.362598228E1,-2.260126352E0,2.638649423E1
5.760797605E0,1.146343803E1,-2.154781532E1,-2.451662540E0,2.453017338E1
5.765832920E0,1.172201157E1,-1.998679543E1,-2.097320795E0,2.326534550E1
5.770868236E0,1.108036518E1,-1.841619873E1,-2.231395960E0,2.160810024E1
5.775903551E0,8.973467827E0,-1.758301735E1,-2.231395960E0,1.986617104E1
5.780938867E0,7.173028469E0,-1.659660530E1,-2.336740971E0,1.823074336E1
5.785943665E0,6.004657745E0,-1.551442719E1,-2.403778553E0,1.680867386E1
5.790978981E0,4.750096321E0,-1.477701283E1,-1.838746905E0,1.563024354E1
5.796014296E0,4.137180328E0,-1.361821938E1,-1.513135433E0,1.431299196E1
5.801049612E0,3.648763418E0,-1.261265469E1,-1.618480325E0,1.322921053E1
5.806054409E0,2.834734917E0,-1.169328117E1,-1.896207690E0,1.218048235E1
5.811089726E0,2.317587137E0,-1.075475407E1,-1.628057122E0,1.112144393E1
5.816125041E0,2.020706177E0,-9.624691010E0,-1.561019540E0,9.957645931E0
5.821160356E0,1.762132406E0,-8.628703117E0,-1.388636947E0,8.915600971E0
5.826195672E0,1.264138460E0,-7.546523571E0,-1.197100878E0,7.744747547E0
5.831200470E0,5.363011956E-1,-6.521805286E0,-8.906430602E-1,6.604150833E0
5.836235785E0,-2.011129409E-1,-5.698200226E0,-3.926490843E-1,5.715252009E0
5.841271100E0,-1.005564690E0,-4.932055473E0,5.554547906E-1,5.064075588E0
5.846306416E0,-1.944091797E0,-4.328716755E0,1.589749932E0,5.004456664E0
5.851311215E0,-2.930502892E0,-3.754108191E0,3.035847664E0,5.647791298E0
5.856346530E0,-3.591302633E0,-3.275267839E0,4.951209068E0,6.938249438E0
5.861381845E0,-4.395754337E0,-2.815581083E0,6.789956093E0,8.564674937E0
5.866417161E0,-4.979939461E0,-2.604891539E0,8.465897560E0,1.016152934E1
5.871421960E0,-5.659893036E0,-2.451662540E0,9.672574997E0,1.147186757E1
5.876457275E0,-6.014234543E0,-2.183511972E0,1.023760605E1,1.207258544E1
5.881492590E0,-5.975927353E0,-1.810016513E0,1.016099167E1,1.192617370E1
5.886527906E0,-5.975927353E0,-1.359906554E0,9.883264542E0,1.162927219E1
5.891532704E0,-6.071695328E0,-1.091755986E0,9.212887764E0,1.108759290E1
5.896568019E0,-6.177040577E0,-7.565677166E-1,8.418013573E0,1.046858049E1
5.901603335E0,-6.426037312E0,-4.501099288E-1,7.575253963E0,9.943893960E0
5.906638651E0,-6.473921299E0,-6.703764945E-2,6.943184853E0,9.493364363E0
5.911673966E0,-6.521805286E0,2.681505978E-1,6.493074894E0,9.206838247E0
5.916678764E0,-6.301538944E0,7.278373241E-1,6.129156113E0,8.820753646E0
5.921714079E0,-6.291962147E0,1.015141487E0,5.698200226E0,8.549197957E0
5.926749395E0,-6.636727333E0,6.129156351E-1,3.476380825E0,7.517116396E0
5.931784710E0,-7.038952827E0,5.363011956E-1,-1.532289028E0,7.223737644E0
5.936789509E0,-7.412448406E0,6.416460276E-1,-7.517793179E0,1.057701826E1
5.941824824E0,-7.536946774E0,6.416460276E-1,-1.103248119E1,1.337658094E1
5.946860140E0,-6.952761650E0,5.937620401E-1,-1.147301483E1,1.342845923E1
5.951895455E0,-5.947196960E0,7.086837292E-1,-1.102290440E1,1.254495140E1
5.956900254E0,-4.405331135E0,9.672574997E-1,-1.017056847E1,1.112578053E1
5.961935569E0,-2.336740971E0,1.359906554E0,-8.312667847E0,8.741290004E0
5.966970885E0,-5.458779931E-1,1.704671621E0,-6.320692539E0,6.569249751E0
5.972006200E0,7.278373241E-1,1.704671621E0,-5.631162167E0,5.928375819E0
5.977010998E0,2.288856745E0,1.168370485E0,-5.497087002E0,6.068106813E0
5.982046313E0,3.332728863E0,3.639186621E-1,-5.583278179E0,6.512489055E0
5.987081629E0,3.945644379E0,-2.298433632E-1,-5.123591423E0,6.470867531E0
5.992116944E0,4.031835556E0,-2.298433632E-1,-3.734954596E0,5.500764652E0
5.997152261E0,3.811569214E0,-1.244984865E-1,-1.283292055E0,4.023729395E0
6.002157058E0,3.150769472E0,9.576806426E-2,7.374141216E-1,3.237329050E0
6.007192374E0,2.489969730E0,2.873041928E-1,2.700659513E0,3.684569821E0
6.012227689E0,1.628057122E0,8.619125932E-2,3.706224203E0,4.048962431E0
6.017263005E0,5.267243981E-1,-3.639186621E-1,3.169923067E0,3.233927587E0
6.022267803E0,1.340752989E-1,-8.810662031E-1,3.361459255E0,3.477594307E0
6.027303119E0,2.681505978E-1,-1.733402014E0,3.112462282E0,3.572675292E0
6.032338434E0,9.289502501E-1,-3.035847664E0,2.758120298E0,4.205537681E0
6.037373750E0,1.407790542E0,-5.161899090E0,9.864110947E-1,5.440595856E0
6.042378548E0,3.476380825E0,-9.184157372E0,-5.774814606E0,1.139221023E1
6.047413864E0,5.343858242E0,-1.010353088E1,2.585737705E-1,1.143262951E1
6.052449179E0,5.765237808E0,-1.190397072E1,2.250549555E0,1.341668585E1
6.057484494E0,5.755661011E0,-1.545696640E1,2.968810081E0,1.675885668E1
6.062489292E0,5.755661011E0,-2.081997871E1,6.445190907E0,2.254195274E1
6.067524608E0,5.612008572E0,-2.562753487E1,6.627150536E0,2.705890441E1
6.072559923E0,5.018246651E0,-2.940079689E1,5.487510204E0,3.032659601E1
6.077595238E0,4.156333923E0,-3.211103439E1,4.501099110E0,3.269026667E1
6.082600037E0,3.275267839E0,-3.360501480E1,3.869029999E0,3.398519961E1
6.087635353E0,2.403778553E0,-3.393062592E1,4.520252705E0,3.431469380E1
6.092670668E0,1.187524080E0,-3.244622040E1,5.640739441E0,3.295429218E1
6.097705983E0,1.187524080E0,-2.765781784E1,6.272808552E0,2.838508813E1
6.102710782E0,2.489969730E0,-2.308010483E1,5.554547787E0,2.386931480E1
6.107746098E0,3.208230257E0,-1.967076111E1,5.248090267E0,2.061004695E1
6.112781413E0,3.428496838E0,-1.719036865E1,5.200206280E0,1.828402336E1
6.117816728E0,3.476380825E0,-1.533246803E1,4.529829502E0,1.636120885E1
6.122821526E0,3.313575268E0,-1.453759289E1,2.288856745E0,1.508510037E1
6.127856842E0,4.414907932E0,-1.436521053E1,7.278373241E-1,1.504594407E1
6.132892157E0,7.038952827E0,-1.391510010E1,-1.915361360E-2,1.559414103E1
6.137927473E0,8.753201485E0,-1.341710663E1,-9.768342972E-1,1.604965706E1
6.142932271E0,9.883264542E0,-1.278503704E1,-1.110909581E0,1.619784585E1
6.147967587E0,9.538499832E0,-1.255519390E1,-4.884171486E-1,1.577512042E1
6.153002902E0,8.925583839E0,-1.239238834E1,1.130063176E0,1.531386230E1
6.158038217E0,8.580819130E0,-1.256477070E1,2.738966703E0,1.545981430E1
6.163043016E0,8.839392662E0,-1.276588345E1,4.213795185E0,1.608908676E1
6.168078332E0,9.624691010E0,-1.311064816E1,5.305551052E0,1.710767793E1
6.173113647E0,1.097502041E1,-1.352245140E1,6.914454460E0,1.873812812E1
6.178148962E0,1.131978607E1,-1.387679291E1,6.550535679E0,1.906862491E1
6.183153761E0,1.162624359E1,-1.402044487E1,5.908889771E0,1.914830000E1
6.188189077E0,1.255519390E1,-1.420240402E1,5.171475887E0,1.964905435E1
6.193224392E0,1.335006905E1,-1.417367363E1,3.591302633E0,1.979936419E1
6.198259707E0,1.398213768E1,-1.454716969E1,1.695094824E0,2.024830033E1
6.203264505E0,1.570596313E1,-1.517923832E1,-2.585737705E-1,2.184384157E1
6.208299821E0,1.713290787E1,-1.566765594E1,-3.217807055E0,2.343856346E1
6.213335136E0,1.747767258E1,-1.588792229E1,-6.952761650E0,2.462186037E1
6.218370451E0,1.690306473E1,-1.593580627E1,-1.112824917E1,2.575852186E1
6.223405767E0,1.544738960E1,-1.563892555E1,-1.584961510E1,2.709996562E1
6.228410566E0,1.361821938E1,-1.502600956E1,-1.951753235E1,2.814553128E1
6.233445881E0,1.168370438E1,-1.400129128E1,-1.974737549E1,2.687943348E1
6.238481196E0,1.041956615E1,-1.258392429E1,-1.715206146E1,2.368788133E1
6.243516512E0,9.787496567E0,-1.116655636E1,-1.348414421E1,2.005764730E1
6.248521311E0,9.366117477E0,-1.017056847E1,-9.835380554E0,1.696759648E1
6.253556626E0,8.925583839E0,-9.461885452E0,-6.885724068E0,1.471755819E1
6.258591941E0,7.920019150E0,-9.011775017E0,-4.788403511E0,1.291772428E1
6.263627257E0,6.320692539E0,-8.293514252E0,-3.524264812E0,1.100699665E1
6.268632055E0,4.175487995E0,-7.613561630E0,-2.298433542E0,8.982417127E0
6.273667370E0,2.365471363E0,-6.646304131E0,-1.091755986E0,7.138679465E0
6.278702686E0,1.197100878E0,-5.544970989E0,-8.236053586E-1,5.732196749E0
6.283738002E0,5.458779931E-1,-4.232948780E0,-5.075707436E-1,4.298077037E0
6.288742800E0,-3.734954596E-1,-2.920926094E0,9.576806426E-2,2.946265369E0
6.293778115E0,-1.082179189E0,-1.551442742E0,3.351882398E-1,1.921051154E0
6.298813430E0,-1.340752959E0,-4.022258818E-1,1.149216816E-1,1.404496761E0
6.303848746E0,-1.015141487E0,7.182605267E-1,-6.895300746E-1,1.421921990E0
6.308884061E0,-4.213795066E-1,1.599326730E0,-8.810662031E-1,1.873948860E0
6.313888860E0,3.447650373E-1,2.422932148E0,-1.130063176E0,2.695645731E0
6.318924175E0,1.053448796E0,3.045424461E0,-1.570596337E0,3.584848305E0
6.323959491E0,1.886630893E0,3.620033026E0,-2.566584110E0,4.821967361E0
6.328994806E0,2.930502892E0,4.156333923E0,-3.696647406E0,6.287142508E0
6.333999605E0,4.022258759E0,4.299986362E0,-4.213795185E0,7.240477754E0
6.339034920E0,5.018246651E0,4.357447147E0,-4.472368717E0,8.010756957E0
6.344070236E0,5.889736176E0,4.414907932E0,-4.606443882E0,8.683301763E0
6.349105551E0,6.837840080E0,4.280832767E0,-5.085284233E0,9.536335873E0
6.354110349E0,7.287950039E0,4.185064793E0,-5.334281445E0,9.954071610E0
6.359145664E0,7.872135162E0,3.955221176E0,-6.253654957E0,1.080381816E1
6.364180980E0,8.542511940E0,3.725377798E0,-6.809109688E0,1.154196364E1
6.369216296E0,9.299078941E0,3.265691042E0,-7.364564419E0,1.230343108E1
6.374221094E0,1.000776291E1,2.576161146E0,-7.345410824E0,1.267860343E1
6.379256409E0,1.024718285E1,1.283292055E0,-6.665457726E0,1.229145726E1
6.384291725E0,9.777919769E0,-8.810662031E-1,-5.650316238E0,1.132740333E1
6.389327040E0,9.030928612E0,-2.796427488E0,-4.740519524E0,1.057592566E1
6.394331839E0,8.082824707E0,-4.060565948E0,-3.830722809E0,9.823170990E0
6.399367154E0,7.374141216E0,-5.506663799E0,-3.256114244E0,9.762355497E0
6.404402470E0,6.856993675E0,-7.010222435E0,-2.059013367E0,1.002003577E1
6.409437785E0,6.818686485E0,-8.245630264E0,-1.340752959E0,1.078343741E1
6.414473100E0,7.517793179E0,-9.682151794E0,-1.388636947E0,1.233651451E1
6.419477899E0,8.456320763E0,-1.115697956E1,-1.455674648E0,1.407503259E1
6.424513215E0,9.739612579E0,-1.308191776E1,-1.379060149E0,1.636760314E1
6.429548530E0,1.121444035E1,-1.566765594E1,-8.140285611E-1,1.928475454E1
6.434583845E0,1.277546024E1,-1.887588692E1,2.585737705E-1,2.279426138E1
6.439588643E0,1.408748245E1,-2.254380226E1,8.523358107E-1,2.659711749E1
6.444623959E0,1.521754646E1,-2.707363319E1,1.685518026E0,3.110299512E1
6.449659274E0,1.513135433E1,-3.263775635E1,1.762132406E0,3.601785854E1
6.454694589E0,1.424071217E1,-3.778050232E1,2.432508945E0,4.044850230E1
6.459699388E0,1.150174522E1,-4.250186920E1,3.035847664E0,4.413519457E1
6.464734704E0,9.883264542E0,-4.538448715E1,3.792415380E0,4.660271458E1
6.469770019E0,4.290409565E0,-4.834371948E1,6.138733387E0,4.892041369E1
6.474805334E0,4.587290287E0,-4.896621323E1,7.354987621E0,4.972754883E1
6.479810133E0,7.833827972E0,-4.659116364E1,8.197746277E0,4.795110461E1
6.484845449E0,9.423578262E0,-4.190810776E1,6.809109688E0,4.349088753E1
6.489880764E0,1.124317074E1,-3.549164581E1,4.060565948E0,3.745068767E1
6.494916079E0,1.275630665E1,-2.898899460E1,1.110909581E0,3.169099694E1
6.499951395E0,1.312980175E1,-2.396117020E1,-5.650315881E-1,2.732853146E1
6.504956193E0,1.300530338E1,-2.027409935E1,-1.580173135E0,2.413864055E1
6.509991509E0,1.224873543E1,-1.764047813E1,-2.442085743E0,2.161438806E1
6.515026824E0,9.356540680E0,-1.617522621E1,-2.202665567E0,1.881580538E1
6.520062140E0,9.097966194E0,-1.446097851E1,-2.087743998E0,1.721195989E1
6.525066938E0,9.691728592E0,-1.253604031E1,-2.959233284E0,1.611952143E1
6.530102253E0,9.375694275E0,-1.144428444E1,-2.691082716E0,1.503719441E1
6.535137568E0,7.517793179E0,-1.117613316E1,-2.604891539E0,1.371891492E1
6.540172884E0,5.190629482E0,-1.157835960E1,-2.260126352E0,1.288833646E1
6.545177683E0,3.859453201E0,-1.157835960E1,-1.599326730E0,1.230900630E1
6.550212998E0,1.877054095E0,-1.191354752E1,-6.416460276E-1,1.207756830E1
6.555248313E0,-2.202665508E-1,-1.217212105E1,3.064578176E-1,1.217797046E1
6.560283629E0,-1.647210717E0,-1.188481712E1,1.206677675E0,1.205894905E1
6.565318944E0,-2.269703150E0,-1.104205799E1,1.991975784E0,1.144755715E1
6.570323743E0,-2.710236311E0,-1.005564690E1,2.039859772E0,1.061237218E1
6.575359058E0,-2.126051188E0,-8.791508675E0,2.288856745E0,9.330036636E0
6.580394374E0,-2.595314741E0,-7.776367188E0,1.398213744E0,8.316402282E0
6.585429689E0,-2.710236311E0,-6.732495308E0,7.565677166E-1,7.296867043E0
6.590434487E0,-3.361459255E0,-5.908889771E0,1.819593310E-1,6.800551143E0
6.595469802E0,-3.916913986E0,-5.027823448E0,-2.394201756E-1,6.377973489E0
6.600505118E0,-4.683058739E0,-4.558559895E0,-1.915361360E-2,6.535432222E0
6.605540434E0,-5.430049419E0,-3.773261786E0,1.063025594E0,6.697235595E0
6.610545232E0,-5.544970989E0,-2.882618904E0,3.466804028E0,7.146672315E0
6.615580547E0,-5.726930618E0,-2.097320795E0,5.612008572E0,8.288011163E0
6.620615863E0,-5.640739441E0,-1.465251446E0,7.517793179E0,9.512208866E0
6.625651178E0,-5.497087002E0,-8.044517636E-1,8.264783859E0,9.958501915E0
6.630655977E0,-5.171475887E0,-2.585737705E-1,8.073247910E0,9.591055993E0
6.635691292E0,-4.884171486E0,3.926490843E-1,7.632715225E0,9.070151383E0
6.640726608E0,-4.491522312E0,9.481038451E-1,7.029376030E0,8.395522673E0
6.645761923E0,-4.156333923E0,1.465251446E0,6.148310184E0,7.564640878E0
6.650766722E0,-4.050989151E0,2.001552582E0,4.548983097E0,6.411705940E0
6.655802037E0,-4.338293552E0,2.231395960E0,1.877054095E0,5.227164715E0
6.660837353E0,-5.324704647E0,2.652775526E0,-4.299986362E0,7.340271132E0
6.665872668E0,-6.301538944E0,3.418920040E0,-1.008437729E1,1.237307854E1
6.670877466E0,-5.717353821E0,3.840299606E0,-9.768342972E0,1.195226172E1
6.675912781E0,-4.299986362E0,4.596867085E0,-6.426037312E0,8.995277941E0
6.680948097E0,-2.183511972E0,5.841852188E0,-1.072602391E0,6.328146444E0
6.685983412E0,-1.532289088E-1,6.636727333E0,8.140285611E-1,6.688218843E0
6.691018727E0,1.647210717E0,7.019799232E0,5.075707436E-1,7.228313252E0
6.696023526E0,3.466804028E0,7.345410824E0,-3.351882398E-1,8.129338318E0
6.701058842E0,5.382165432E0,7.393294811E0,-1.915361404E0,9.343292900E0
6.706094157E0,7.422025204E0,6.636727333E0,-3.169923067E0,1.044897220E1
6.711129472E0,8.599972725E0,5.037400246E0,-3.007117271E0,1.041046043E1
6.716134271E0,8.073247910E0,2.853888512E0,-7.852981687E-1,8.598761810E0
6.721169587E0,6.780379295E0,1.541865945E0,1.819593310E0,7.187615307E0
6.726204902E0,5.305551052E0,4.213795066E-1,3.572149038E0,6.409889344E0
6.731240217E0,3.648763418E0,-5.554547906E-1,4.070142746E0,5.494366795E0
6.736245015E0,2.422932148E0,-1.264138460E0,4.146757126E0,4.966310592E0
6.741280332E0,1.206677675E0,-1.790862918E0,3.878606796E0,4.439239989E0
6.746315647E0,3.830722719E-2,-1.924938202E0,3.667917013E0,4.142519733E0
6.751350962E0,-7.182605267E-1,-2.164358377E0,3.313575268E0,4.022452787E0
6.756355760E0,-1.244984865E0,-2.355894566E0,4.108449936E0,4.896895690E0
6.761391076E0,-1.493981838E0,-3.438073635E0,7.766790390E0,8.624115318E0
6.766426391E0,-1.149216771E0,-6.540958881E0,8.686163902E0,1.093408824E1
6.771461706E0,-2.183511972E0,-1.045787334E1,-1.470997524E1,1.818015982E1
6.776466505E0,-9.768342972E-1,-9.710882187E0,-2.057098007E1,2.276885283E1
6.781501821E0,2.987963676E0,-7.048529625E0,-7.287950039E0,1.056995329E1
6.786537136E0,3.964797974E0,-7.441178799E0,-3.466804028E0,9.116440920E0
6.791572451E0,3.514688015E0,-9.940725327E0,-2.403778553E0,1.081430549E1
6.796607767E0,2.384624958E0,-1.366610336E1,-2.049436569E0,1.402315969E1
6.801612565E0,1.187524080E0,-1.759259415E1,-7.757213712E-1,1.764968345E1
6.806647881E0,5.171475410E-1,-2.262999535E1,1.130063176E0,2.266409437E1
6.811683196E0,-2.873042040E-2,-2.689167404E1,3.275267839E0,2.709041044E1
6.816718512E0,-5.458779931E-1,-3.215891647E1,6.224924564E0,3.276039648E1
6.821723309E0,-1.225831270E0,-3.651636505E1,9.615114212E0,3.778092111E1
6.826758625E0,-2.126051188E0,-3.876691437E1,1.256477070E1,4.080768562E1
6.831793940E0,-2.030282974E0,-3.723462296E1,1.433648014E1,3.995089309E1
6.836829257E0,-4.309563041E-1,-3.211103439E1,1.139640045E1,3.407612355E1
6.841864572E0,-1.714248419E0,-2.786850739E1,7.354987621E0,2.887365918E1
6.846869370E0,-2.796427488E0,-2.445916367E1,3.055001259E0,2.480733211E1
6.851904685E0,-3.801992416E0,-2.178723526E1,-6.129156351E-1,2.212497304E1
6.856940001E0,-3.543418407E0,-1.936430359E1,-3.007117271E0,1.991418645E1
6.861975316E0,-2.413355350E0,-1.791820526E1,-2.863465309E0,1.830534887E1
6.866980115E0,4.501099288E-1,-1.700840950E1,-7.182605267E-1,1.702951822E1
6.872015430E0,3.361459255E0,-1.602199745E1,1.733402014E0,1.646233559E1
6.877050746E0,5.085284233E0,-1.485362720E1,3.572149038E0,1.610126099E1
6.882086061E0,5.918466568E0,-1.403959846E1,4.127603531E0,1.578529957E1
6.887090860E0,5.889736176E0,-1.342668343E1,4.070142746E0,1.521613887E1
6.892126175E0,6.100425720E0,-1.286165142E1,4.041412354E0,1.479764458E1
6.897161491E0,6.780379295E0,-1.228704357E1,3.936067581E0,1.457523966E1
6.902196806E0,7.881711960E0,-1.188481712E1,4.520252705E0,1.496004499E1
6.907201604E0,8.877699852E0,-1.175074196E1,4.788403511E0,1.548619706E1
6.912236919E0,9.844957352E0,-1.201889229E1,4.050989151E0,1.605576128E1
6.917272235E0,1.144428444E1,-1.234450436E1,3.878606796E0,1.727431691E1
6.922307550E0,1.341710663E1,-1.282334423E1,4.118026733E0,1.901091928E1
6.927342865E0,1.482489681E1,-1.412578964E1,3.811569214E0,2.082891160E1
6.932347664E0,1.698925591E1,-1.549527359E1,4.041412354E0,2.334676281E1
6.937382980E0,1.865562057E1,-1.691264153E1,3.189076662E0,2.538188000E1
6.942418295E0,1.964203072E1,-1.817677879E1,3.447650433E0,2.698316052E1
6.947453610E0,2.037944412E1,-1.894292450E1,9.289502501E-1,2.783916450E1
6.952458409E0,1.985272026E1,-1.941218758E1,-1.312022567E0,2.779721086E1
6.957493725E0,1.716163826E1,-1.878011894E1,-4.146757126E0,2.577615739E1
6.962529040E0,1.463336086E1,-1.744894218E1,-7.728483200E0,2.404849862E1
6.967564355E0,1.213381386E1,-1.613691902E1,-1.165497398E1,2.331240041E1
6.972569153E0,1.022802925E1,-1.461420727E1,-1.629972458E1,2.416337430E1
6.977604470E0,8.753201485E0,-1.325430107E1,-1.972822189E1,2.532780630E1
6.982639785E0,8.034940720E0,-1.167412758E1,-2.130839539E1,2.559088199E1
6.987675100E0,7.354987621E0,-1.035252857E1,-2.128924179E1,2.478916107E1
6.992679898E0,6.004657745E0,-9.471462250E0,-1.977610588E1,2.273453047E1
6.997715214E0,4.050989151E0,-8.676587105E0,-1.683602715E1,1.936867282E1
7.002750529E0,2.796427488E0,-7.910442352E0,-1.234450436E1,1.492587996E1
7.007785844E0,2.595314741E0,-7.019799232E0,-6.473921299E0,9.895700928E0
7.012790643E0,2.432508945E0,-6.406883717E0,-2.126051188E0,7.175329427E0
7.017825959E0,1.465251446E0,-5.726930618E0,-3.926490843E-1,5.924429881E0
7.022861274E0,1.149216771E0,-4.817133904E0,-4.309563041E-1,4.971036267E0
7.027896589E0,1.340752959E0,-3.543418407E0,1.723825186E-1,3.792512128E0
7.032901388E0,1.877054095E0,-2.336740971E0,2.968810201E-1,3.011947672E0
7.037936703E0,2.585737944E0,-1.149216771E0,6.703764945E-2,2.830412328E0
7.042972019E0,3.217807055E0,-2.011129409E-1,-1.819593310E-1,3.229216291E0
7.048007334E0,3.734954596E0,6.512228847E-1,-2.202665508E-1,3.797695937E0
7.053012132E0,4.472368717E0,1.359906554E0,-5.267243981E-1,4.704132903E0
7.058047447E0,5.161899090E0,1.972822189E0,-6.991068721E-1,5.570096949E0
7.063082763E0,5.822698593E0,2.585737944E0,-1.340752959E0,6.510566651E0
7.068118079E0,6.435614109E0,3.102885485E0,-2.193088770E0,7.473597905E0
7.073153395E0,7.240066051E0,3.869029999E0,-3.773261786E0,9.034680629E0
7.078158192E0,8.121131897E0,4.635174274E0,-5.506663799E0,1.085177267E1
7.083193508E0,8.370129585E0,5.066130638E0,-7.173028469E0,1.213165637E1
7.088228823E0,8.916007042E0,5.487510204E0,-8.398859978E0,1.342195212E1
7.093264139E0,8.868123055E0,5.487510204E0,-9.002198219E0,1.377664500E1
7.098268937E0,8.264783859E0,5.114014626E0,-9.481039047E0,1.357755130E1
7.103304253E0,7.316680431E0,4.271255970E0,-9.595960617E0,1.280077733E1
7.108339568E0,5.918466568E0,2.930502892E0,-9.375694275E0,1.146820548E1
7.113374884E0,4.175487995E0,4.979939461E-1,-8.121131897E0,9.145243641E0
7.118379682E0,3.447650433E0,-1.580173135E0,-6.473921299E0,7.502992578E0
7.123414998E0,3.514688015E0,-3.169923067E0,-4.596867085E0,6.597926272E0
7.128450313E0,3.792415380E0,-4.271255970E0,-2.633621931E0,6.289833579E0
7.133485629E0,4.491522312E0,-5.219359875E0,-8.619126081E-1,6.939624163E0
7.138490426E0,5.190629482E0,-6.291962147E0,2.968810201E-1,8.162080643E0
7.143525742E0,6.052541733E0,-7.354987621E0,8.714894056E-1,9.564967231E0
7.148561057E0,7.374141216E0,-8.916007042E0,9.768342972E-1,1.161151779E1
7.153596373E0,9.088389397E0,-1.077390766E1,1.168370485E0,1.414358504E1
7.158601171E0,1.142513084E1,-1.343626022E1,1.704671621E0,1.771927225E1
7.163636487E0,1.397256088E1,-1.644337654E1,2.940079689E0,2.177753793E1
7.168671802E0,1.556231117E1,-2.014002419E1,4.673481941E0,2.587754889E1
7.173707118E0,1.682645035E1,-2.470816231E1,6.971915245E0,3.069577036E1
7.178711916E0,1.674983597E1,-2.988921356E1,8.935160637E0,3.540846209E1
7.183747232E0,1.420240402E1,-3.552037811E1,1.003649330E1,3.954916863E1
7.188782547E0,1.101332760E1,-4.009809113E1,9.950302124E0,4.275697381E1
7.193817863E0,8.006210327E0,-4.279874802E1,9.548076630E0,4.457575577E1
7.198822660E0,5.286397457E0,-4.283705521E1,8.389283180E0,4.396975516E1
7.203857976E0,1.484405041E0,-4.193683624E1,7.929595947E0,4.270573948E1
7.208893292E0,1.771709204E0,-3.890098953E1,6.397306919E0,3.946329277E1
7.213928608E0,4.223371983E0,-3.353797913E1,6.186617374E0,3.436432961E1
7.218963923E0,7.048529625E0,-2.991794395E1,5.209783077E0,3.117542269E1
7.223968721E0,8.868123055E0,-2.543599892E1,2.403778553E0,2.704462606E1
7.229004036E0,9.969455719E0,-2.197877121E1,2.202665508E-1,2.413513929E1
7.234039352E0,9.835380554E0,-1.980483627E1,-1.762132406E0,2.218268156E1
7.239074667E0,9.806650162E0,-1.845450592E1,-2.920926094E0,2.110144510E1
7.244079466E0,9.500192642E0,-1.716163826E1,-3.533841610E0,1.993147071E1
7.249114781E0,9.222464561E0,-1.616564941E1,-3.916913986E0,1.901905068E1
7.254150097E0,8.638279915E0,-1.557188797E1,-4.405331135E0,1.834422299E1
7.259185412E0,7.651868820E0,-1.502600956E1,-4.539406300E0,1.746248176E1
7.264190211E0,6.550535679E0,-1.422155857E1,-4.730942726E0,1.635677428E1
7.269225526E0,5.209783077E0,-1.357033539E1,-4.826710701E0,1.531642838E1
7.274260841E0,4.252102375E0,-1.281376743E1,-5.075707436E0,1.442344676E1
7.279296157E0,3.706224203E0,-1.226788998E1,-4.740519524E0,1.366417753E1
7.284300955E0,3.303998232E0,-1.163582039E1,-4.242525578E0,1.281825822E1
7.289336270E0,3.371036053E0,-1.102290440E1,-3.830722809E0,1.214671736E1
7.294371585E0,1.771709204E0,-1.090798283E1,-2.968810081E0,1.144276523E1
7.299406901E0,6.320692301E-1,-1.049618053E1,-2.422932148E0,1.079073295E1
7.304411700E0,-1.244984865E-1,-9.959878922E0,-2.106897593E0,1.018104638E1
7.309447015E0,-8.619126081E-1,-9.490615845E0,-1.264138460E0,9.613153931E0
7.314482330E0,-1.273715258E0,-8.983044624E0,-5.746083856E-1,9.091073428E0
7.319517646E0,-1.503558636E0,-8.427590370E0,2.011129409E-1,8.563026009E0
7.324522445E0,-2.116474390E0,-7.728483200E0,6.895300746E-1,8.042659270E0
7.329557760E0,-2.499546528E0,-7.105990410E0,9.002198577E-1,7.586384405E0
7.334593075E0,-2.968810081E0,-6.397306919E0,1.197100878E0,7.153490031E0
7.339628391E0,-3.457227230E0,-5.908889771E0,1.312022567E0,6.970566810E0
7.344633189E0,-3.792415380E0,-5.458779812E0,2.327163935E0,7.042469981E0
7.349668505E0,-3.620033026E0,-4.836287498E0,4.118026733E0,7.311118933E0
7.354703820E0,-3.303998232E0,-4.165910721E0,5.746084213E0,7.828709998E0
7.359739136E0,-2.997540474E0,-3.552995205E0,7.038952827E0,8.435394521E0
7.364743934E0,-2.336740971E0,-2.671929121E0,7.441178799E0,8.244434820E0
7.369779249E0,-2.308010340E0,-2.011129379E0,7.450755596E0,8.055141964E0
7.374814564E0,-2.978386879E0,-1.532289028E0,7.144298077E0,7.890481169E0
7.379849880E0,-3.782838583E0,-1.120486379E0,6.521805286E0,7.622289791E0
7.384885195E0,-4.434061527E0,-5.841852427E-1,5.286397457E0,6.924461864E0
7.389889994E0,-5.066130638E0,1.053448766E-1,3.064578056E0,5.921859155E0
7.394925309E0,-5.669469833E0,8.619126081E-1,-6.607996821E-1,5.772559030E0
7.399960625E0,-5.937620163E0,1.752555609E0,-3.294421434E0,7.012845139E0
7.404995940E0,-5.420472622E0,2.940079689E0,-3.495534420E0,7.088325113E0
7.410000739E0,-3.620033026E0,5.477933407E0,1.723825186E-1,6.568265315E0
7.415036054E0,-2.269703150E0,6.866570473E0,1.934514999E0,7.486233414E0
7.420071370E0,-1.187524080E0,7.010222435E0,1.532289028E0,7.273330853E0
7.425106685E0,-3.639186621E-1,6.952761650E0,1.216254473E0,7.067715777E0
7.430111483E0,4.884171486E-1,6.607996464E0,2.489969730E-1,6.630698913E0
7.435146798E0,1.350329757E0,6.339846134E0,-7.661445141E-1,6.527175260E0
7.440182115E0,2.576161146E0,6.110002518E0,-1.149216771E0,6.729742655E0
7.445217430E0,3.878606796E0,5.592854977E0,-1.666364431E0,7.007166895E0
7.450252746E0,4.903325081E0,5.085284233E0,-2.834734917E0,7.611730068E0
7.455257543E0,5.046977043E0,4.395754337E0,-2.518700123E0,7.151117659E0
7.460292859E0,3.888183594E0,3.361459255E0,-4.405331016E-1,5.158628635E0
7.465328174E0,2.604891539E0,2.576161146E0,1.168370485E0,3.845407101E0
7.470363490E0,1.570596337E0,1.915361404E0,1.915361404E0,3.131132618E0
7.475368288E0,6.895300746E-1,1.292868972E0,2.585737944E0,2.972036779E0
7.480403604E0,4.788403213E-2,6.799532771E-1,2.853888512E0,2.934162398E0
7.485438919E0,-3.256114423E-1,-3.160346150E-1,4.874594688E0,4.895668909E0
7.490474235E0,-4.022258818E-1,-3.936067581E0,3.256114244E0,5.124128573E0
7.495509550E0,-9.289502501E-1,-6.924031258E0,-1.046745014E1,1.258462037E1
7.500514349E0,-1.551442742E0,-7.125144482E0,-1.930684280E1,2.063804345E1
7.505549664E0,6.895300746E-1,-4.663905144E0,-1.223915863E1,1.311580981E1
7.510584979E0,2.978386879E0,-2.585737944E0,-4.654327869E0,6.100786591E0
7.515620295E0,3.495534420E0,-2.758120298E0,-2.844311714E0,5.283568641E0
7.520625093E0,3.026270866E0,-4.041412354E0,-5.267243981E-1,5.076294688E0
7.525660408E0,2.221819162E0,-5.975927353E0,1.063025594E0,6.463606697E0
7.530695723E0,8.427590132E-1,-1.040041256E1,7.852981687E-1,1.046401058E1
7.535731040E0,-3.160346150E-1,-1.643379974E1,3.007117271E0,1.670965009E1
7.540735838E0,-4.788403511E-1,-2.349190712E1,3.620033026E0,2.377401159E1
7.545771153E0,-9.959878922E-1,-3.098097038E1,5.975927353E0,3.156777194E1
7.550806468E0,-1.235408068E0,-3.746446991E1,9.414001465E0,3.864888307E1
7.555841784E0,-9.672574997E-1,-4.209006500E1,1.746809578E1,4.558117516E1
7.560877099E0,-7.469909191E-1,-4.435019302E1,2.294602966E1,4.994014311E1
7.565881898E0,1.331176162E0,-4.227202606E1,2.203623199E1,4.768953489E1
7.570917213E0,3.438073635E0,-3.560656738E1,1.770751572E1,3.991496090E1
7.575952529E0,3.821146011E0,-3.173753738E1,1.353202820E1,3.471294028E1
7.580987844E0,4.003105164E0,-2.954444885E1,9.040505409E0,3.115493616E1
7.585992643E0,4.194641590E0,-2.736093712E1,5.650316238E0,2.825140654E1
7.591027958E0,3.715801001E0,-2.562753487E1,2.470816135E0,2.601312463E1
7.596063274E0,3.974374771E0,-2.370259666E1,5.267243981E-1,2.403926334E1
7.601098589E0,3.754108191E0,-2.162442970E1,2.489969730E-1,2.194928900E1
7.606103387E0,3.600879431E0,-1.952710915E1,1.742978811E0,1.993269423E1
7.611138702E0,3.811569214E0,-1.770751572E1,2.537853718E0,1.829002117E1
7.616174018E0,4.702212334E0,-1.603157425E1,1.484405041E0,1.677276459E1
7.621209333E0,5.841852188E0,-1.495897198E1,-1.149216816E-1,1.605961664E1
7.626244649E0,7.307103634E0,-1.392467690E1,-1.695094824E0,1.581656526E1
7.631249447E0,8.245630264E0,-1.312022495E1,-3.131615877E0,1.580941932E1
7.636284763E0,9.203310966E0,-1.252646351E1,-4.137180328E0,1.608507015E1
7.641320078E0,1.000776291E1,-1.218169785E1,-4.970362663E0,1.653038372E1
7.646355394E0,1.053448772E1,-1.185608673E1,-5.372588634E0,1.674535556E1
7.651360192E0,1.070687008E1,-1.214339066E1,-5.908889771E0,1.723409359E1
7.656395508E0,1.078348446E1,-1.307234097E1,-6.215347767E0,1.804993582E1
7.661430823E0,1.069729328E1,-1.437478733E1,-5.525817394E0,1.875103336E1
7.666466139E0,9.883264542E0,-1.536119843E1,-5.937620163E0,1.920678704E1
7.671470936E0,8.848969460E0,-1.544738960E1,-8.485051155E0,1.972111049E1
7.676506253E0,8.101978302E0,-1.513135433E1,-1.140597725E1,2.060815987E1
7.681541568E0,7.536946774E0,-1.458547688E1,-1.339795303E1,2.119072551E1
7.686576884E0,7.144298077E0,-1.362779617E1,-1.314895535E1,2.023988266E1
7.691581681E0,7.153874874E0,-1.251688671E1,-1.160709000E1,1.850877945E1
7.696616997E0,6.885724068E0,-1.151132202E1,-9.873687744E0,1.665573296E1
7.701652312E0,6.320692539E0,-1.066856289E1,-7.929595947E0,1.471896328E1
7.706687628E0,5.928043365E0,-9.902418137E0,-5.956773758E0,1.298779183E1
7.711692426E0,5.765237808E0,-9.155426979E0,-4.941632271E0,1.189451721E1
7.716727742E0,5.219359875E0,-8.494627953E0,-4.156333923E0,1.080164493E1
7.721763057E0,4.884171486E0,-7.699752808E0,-3.275267839E0,9.688586265E0
7.726798373E0,4.721365929E0,-6.962338448E0,-2.403778553E0,8.748920175E0
7.731803171E0,4.194641590E0,-6.042964935E0,-1.063025594E0,7.432527611E0
7.736838487E0,3.801992416E0,-5.123591423E0,-2.489969730E-1,6.385008606E0
7.741873802E0,3.821146011E0,-4.050989151E0,3.160346150E-1,5.577772658E0
7.746909117E0,4.079719543E0,-3.179499865E0,3.543418646E-1,5.184485423E0
7.751944433E0,4.548983097E0,-2.126051188E0,2.585737705E-1,5.027942051E0
7.756949231E0,5.219359875E0,-1.254561663E0,-1.244984865E-1,5.369463878E0
7.761984546E0,5.870582581E0,-4.692635238E-1,-3.447650373E-1,5.899390733E0
7.767019862E0,6.540958881E0,2.681505978E-1,-6.129156351E-1,6.575082768E0
7.772055178E0,7.259219646E0,9.097966552E-1,-7.661445141E-1,7.356016398E0
7.777059976E0,7.833827972E0,1.589749932E0,-6.799532771E-1,8.022375085E0
7.782095291E0,8.130708694E0,2.221819162E0,-7.086837292E-1,8.458554066E0
7.787130606E0,8.226476669E0,2.671929121E0,-8.714894056E-1,8.693308772E0
7.792165922E0,8.034940720E0,3.093308687E0,-1.101332784E0,8.679963416E0
7.797170721E0,7.402871609E0,3.208230257E0,-1.647210717E0,8.234594865E0
7.802206036E0,6.866570473E0,3.409343243E0,-1.695094824E0,7.851544935E0
7.807241351E0,5.985504150E0,3.476380825E0,-1.695094824E0,7.126347594E0
7.812276667E0,4.989516258E0,3.466804028E0,-1.503558636E0,6.258968863E0
7.817281466E0,4.041412354E0,3.265691042E0,-1.522712231E0,5.414462515E0
7.822316781E0,3.284844637E0,3.332728863E0,-2.346317768E0,5.234739060E0
7.827352096E0,2.375048161E0,3.217807055E0,-3.821146011E0,5.531391583E0
7.832387412E0,1.580173135E0,3.083731890E0,-5.966350555E0,6.899542626E0
7.837392210E0,1.005564690E0,2.911349297E0,-7.814674377E0,8.399776824E0
7.842427525E0,8.140285611E-1,2.710236311E0,-8.896853447E0,9.336060444E0
7.847462840E0,7.852981687E-1,2.317587137E0,-8.657433510E0,8.996613715E0
7.852498156E0,9.193734527E-1,1.819593310E0,-7.393294811E0,7.669222616E0
7.857502955E0,1.541865945E0,7.852981687E-1,-5.908889771E0,6.157030301E0
7.862538270E0,2.193088770E0,-4.501099288E-1,-3.581725836E0,4.223860469E0
7.867573585E0,2.930502892E0,-1.321599364E0,-1.580173135E0,3.582097041E0
7.872608901E0,3.600879431E0,-2.097320795E0,-3.160346150E-1,4.179110560E0
7.877613700E0,4.232948780E0,-2.834734917E0,1.915361285E-1,5.098064683E0
7.882649015E0,4.951209068E0,-3.572149038E0,6.033388376E-1,6.135041788E0
7.887684330E0,5.947196960E0,-4.529829502E0,5.075707436E-1,7.493072472E0
7.892719646E0,7.699752808E0,-5.822698593E0,2.585737705E-1,9.656959801E0
7.897724444E0,1.018014526E1,-8.082824707E0,6.703764945E-2,1.299891945E1
7.902759759E0,1.382890892E1,-1.152089882E1,1.302445769E0,1.804622388E1
7.907795075E0,1.752555656E1,-1.593580627E1,3.399766445E0,2.393017899E1
7.912830391E0,2.067632675E1,-2.132754898E1,6.722918510E0,3.045607438E1
7.917835189E0,2.249591827E1,-2.768654823E1,1.017056847E1,3.709517159E1
7.922870504E0,2.214157677E1,-3.462973404E1,1.096544361E1,4.254067295E1
7.927905819E0,2.017833138E1,-4.084508133E1,9.548076630E0,4.654730382E1
7.932941135E0,1.563892555E1,-4.603570938E1,8.159439087E0,4.929948252E1
7.937976450E0,1.084094524E1,-4.898536682E1,6.550535679E0,5.059646009E1
7.942981249E0,4.912901878E0,-5.049850082E1,4.884171486E0,5.097146576E1
7.948016564E0,2.892195702E0,-4.887044525E1,7.374141216E-1,4.896150523E1
7.953051880E0,1.675941229E0,-4.369897079E1,-2.940079689E0,4.382981743E1
7.958087195E0,1.723825186E-1,-3.587471771E1,-5.937620163E0,3.636317395E1
7.963091994E0,1.905784607E0,-2.857719231E1,-8.714894295E0,2.993722295E1
7.968127309E0,2.978386879E0,-2.353021431E1,-9.998186111E0,2.573918218E1
7.973162625E0,2.710236311E0,-2.060928917E1,-9.816226959E0,2.298796408E1
7.978197940E0,2.633621931E0,-1.862688828E1,-8.159439087E0,2.050544751E1
7.983202738E0,2.183511972E0,-1.729571342E1,-6.234501362E0,1.851427651E1
7.988238053E0,1.790862918E0,-1.629972458E1,-4.175487995E0,1.692107891E1
7.993273369E0,1.101332784E0,-1.572511673E1,-2.384624958E0,1.594298172E1
7.998308684E0,4.405331016E-1,-1.535162163E1,-8.523358107E-1,1.538157444E1
8.003313483E0,6.703764945E-2,-1.466209126E1,9.576806426E-2,1.466255726E1
8.008348798E0,-3.830722719E-2,-1.389594650E1,6.991068721E-1,1.391357420E1
8.013384114E0,-1.436520964E-1,-1.318726254E1,1.139639974E0,1.323719413E1
8.018419429E0,-2.489969730E-1,-1.247857952E1,1.513135433E0,1.257245104E1
8.023424228E0,-9.576806426E-2,-1.165497398E1,1.024718285E0,1.170032639E1
8.028459543E0,3.351882398E-1,-1.085052204E1,2.681505978E-1,1.085900937E1
8.033494859E0,9.864110947E-1,-1.018972206E1,-7.374141216E-1,1.026387949E1
8.038530174E0,1.685518026E0,-9.691728592E0,-1.283292055E0,9.920555056E0
8.043534972E0,2.126051188E0,-9.289502144E0,-1.455674648E0,9.640224708E0
8.048570288E0,2.671929121E0,-8.925583839E0,-1.513135433E0,9.439005824E0
8.053605604E0,3.074155092E0,-8.504204750E0,-1.417367458E0,9.153188432E0
8.058640919E0,3.189076662E0,-8.121131897E0,-1.331176162E0,8.825815725E0
8.063645717E0,2.997540474E0,-7.862558365E0,-1.379060149E0,8.526832931E0
8.068681032E0,2.240972757E0,-7.412448406E0,-1.312022567E0,7.854155174E0
8.073716348E0,1.752555609E0,-7.000645638E0,-9.959878922E-1,7.285086299E0
8.078751663E0,7.852981687E-1,-6.569689274E0,-2.681505978E-1,6.621889089E0
8.083756462E0,7.661445439E-2,-5.966350555E0,8.044517636E-1,6.020826469E0
8.088791777E0,-5.363011956E-1,-5.324704647E0,1.848323703E0,5.661837075E0
8.093827093E0,-9.481038451E-1,-4.702212334E0,2.940079689E0,5.626168351E0
8.098862408E0,-1.149216771E0,-4.165910721E0,3.754108191E0,5.724407360E0
8.103897723E0,-1.206677675E0,-3.447650433E0,4.108449936E0,5.497428980E0
8.108902522E0,-9.864110947E-1,-2.815581083E0,4.261679173E0,5.202154655E0
8.113937838E0,-1.130063176E0,-2.250549555E0,4.185064793E0,4.884340631E0
8.118973153E0,-9.193734527E-1,-1.541865945E0,4.175487995E0,4.545030048E0
8.124008468E0,-8.810662031E-1,-9.959878922E-1,3.907337189E0,4.127414862E0
8.129013266E0,-9.097966552E-1,-3.734954596E-1,3.600879431E0,3.732768609E0
8.134048582E0,-7.469909191E-1,5.650315881E-1,3.112462282E0,3.250334996E0
8.139083897E0,-8.427590132E-1,1.292868972E0,2.173935175E0,2.666035836E0
8.144119213E0,-7.278373241E-1,1.991975784E0,1.331176162E0,2.503945820E0
8.149124011E0,-5.458779931E-1,2.489969730E0,1.561019540E0,2.989099203E0
8.154159327E0,1.915361360E-2,2.911349297E0,2.308010340E0,3.715270288E0
8.159194642E0,5.746083856E-1,3.169923067E0,2.700659513E0,4.203825503E0
8.164229957E0,1.197100878E0,3.294421434E0,2.461239338E0,4.282985195E0
8.169234756E0,1.675941229E0,3.639186621E0,1.963245392E0,4.461702672E0
8.174270072E0,1.924938202E0,3.763684988E0,1.455674648E0,4.470984282E0
8.179305387E0,2.260126352E0,3.974374771E0,1.302445769E0,4.753965811E0
8.184340702E0,2.901772499E0,4.012681961E0,2.049436569E0,5.359299433E0
8.189345501E0,3.552995205E0,3.964797974E0,3.122039080E0,6.171752256E0
8.194380817E0,3.524264812E0,3.581725836E0,3.840299606E0,6.324326328E0
8.199416132E0,3.418920040E0,3.217807055E0,3.878606796E0,6.089900423E0
8.204451447E0,3.074155092E0,2.806004286E0,3.083731890E0,5.180105400E0
8.209486763E0,2.509123325E0,2.384624958E0,1.829170108E0,3.915098892E0
8.214491561E0,2.786850691E0,2.097320795E0,-1.570596337E0,3.825188119E0
8.219526876E0,5.142745018E0,9.481038451E-1,-2.197877121E1,2.259232416E1
8.224562191E0,3.351882398E-1,-6.339846134E0,-3.513730240E1,3.570624623E1
8.229597507E0,7.182605267E-1,-9.165003777E0,-2.626918030E1,2.783133173E1
8.234602306E0,2.834734917E0,-5.899312973E0,-6.042964935E0,8.908144633E0
8.239637621E0,3.428496838E0,-3.696647406E0,9.959878922E-1,5.139239680E0
8.244672936E0,3.955221176E0,-3.993528366E0,1.206677675E0,5.748748940E0
8.249708252E0,3.533841610E0,-5.066130638E0,1.187524080E0,6.289986455E0
8.254713050E0,2.221819162E0,-7.086836815E0,9.097966552E-1,7.482477289E0
8.259748366E0,8.427590132E-1,-9.921571732E0,2.011129379E0,1.015836944E1
8.264783681E0,-1.149216816E-1,-1.288080502E1,2.269703150E0,1.307975142E1
8.269818997E0,-1.474828243E0,-1.537077522E1,2.614468336E0,1.566113961E1
8.274823794E0,-2.547430515E0,-1.883757973E1,2.949656487E0,1.923653518E1
8.279859111E0,-4.108449936E0,-2.258211136E1,3.926490784E0,2.328622864E1
8.284894426E0,-5.707777023E0,-2.663310051E1,5.841852188E0,2.785727909E1
8.289929742E0,-6.952761650E0,-2.987005997E1,8.743624687E0,3.189063106E1
8.294934539E0,-7.326257229E0,-3.220680237E1,1.213381386E1,3.518780474E1
8.299969855E0,-6.809109688E0,-3.311659622E1,1.712333107E1,3.789830322E1
8.305005170E0,-5.382165432E0,-3.285802460E1,1.894292450E1,3.830733446E1
8.310040486E0,-3.639186621E0,-3.184288216E1,1.756386375E1,3.654725890E1
8.315045284E0,-2.413355350E0,-3.056916809E1,1.293826580E1,3.328208292E1
8.320080600E0,-1.264138460E0,-2.939122009E1,7.862558365E0,3.045097188E1
8.325115915E0,3.543418646E-1,-2.794512177E1,4.395754337E0,2.829095341E1
8.330151231E0,2.298433542E0,-2.628833389E1,1.656787634E0,2.644057944E1
8.335156029E0,3.926490784E0,-2.382709503E1,-6.320692301E-1,2.415672368E1
8.340191345E0,5.420472622E0,-2.080082512E1,-3.102885485E0,2.171828141E1
8.345226660E0,5.564124584E0,-1.835873795E1,-4.462791920E0,1.969566584E1
8.350261976E0,5.152322292E0,-1.657745171E1,-4.529829502E0,1.794094996E1
8.355297291E0,4.730942726E0,-1.534204483E1,-3.476380825E0,1.642697118E1
8.360302089E0,4.501099110E0,-1.478658962E1,-2.116474390E0,1.560072401E1
8.365337404E0,4.635174274E0,-1.427901936E1,-9.481038451E-1,1.504241122E1
