"Time (s)","Acceleration x (m/s^2)","Acceleration y (m/s^2)","Acceleration z (m/s^2)","Absolute acceleration (m/s^2)"
8.870318000E-3,-2.978386879E0,4.223371983E0,6.464344501E0,8.276195330E0
1.390563100E-2,-3.160346270E0,4.118026733E0,6.445190907E0,8.275652152E0
1.894094400E-2,-3.150769472E0,4.003105164E0,7.134721279E0,8.766780877E0
2.394574000E-2,-3.112462282E0,4.031835556E0,8.044517517E0,9.521416990E0
2.898105300E-2,-2.892195702E0,4.031835556E0,8.571242332E0,9.903872427E0
3.401636600E-2,-2.365471363E0,4.070142746E0,8.829815865E0,1.000635623E1
3.902116200E-2,-1.829170108E0,4.022258759E0,9.040505409E0,1.006256264E1
4.405647500E-2,-1.302445769E0,3.878606796E0,9.337387085E0,1.019444718E1
4.909178900E-2,-8.331822157E-1,3.773261786E0,1.008437729E1,1.079936861E1
5.412710100E-2,-4.022258818E-1,3.667917013E0,9.959878922E0,1.062142123E1
5.913189700E-2,-2.394201756E-1,3.533841610E0,1.086009884E1,1.142309526E1
6.416721000E-2,-2.873042040E-2,3.351882458E0,1.196143150E1,1.242222947E1
6.920252400E-2,3.064578176E-1,3.026270866E0,1.249773312E1,1.286256447E1
7.420731900E-2,7.948749661E-1,2.806004286E0,1.260307789E1,1.293611451E1
7.924263200E-2,1.130063176E0,2.499546528E0,1.223915863E1,1.254279792E1
8.427794500E-2,1.312022567E0,2.308010340E0,1.223915863E1,1.252379012E1
8.931325900E-2,1.331176162E0,2.240972757E0,1.225831223E1,1.253236640E1
9.431805400E-2,1.312022567E0,2.135627985E0,1.179862595E1,1.206191877E1
9.935336700E-2,1.158793569E0,2.078166962E0,1.183693314E1,1.207371387E1
1.043886800E-1,8.714894056E-1,2.039859772E0,1.140597725E1,1.161967464E1
1.094239940E-1,5.554547906E-1,1.944091797E0,1.075475407E1,1.094316033E1
1.144287890E-1,3.160346150E-1,2.135627985E0,9.768342972E0,1.000406463E1
1.194641020E-1,-8.619125932E-2,2.260126352E0,8.772355080E0,9.059239135E0
1.244994150E-1,-5.363011956E-1,2.260126352E0,8.494627953E0,8.806502947E0
1.295042110E-1,-8.427590132E-1,2.240972757E0,8.350975990E0,8.687404770E0
1.345395240E-1,-9.959878922E-1,2.384624958E0,7.958326340E0,8.367400206E0
1.395748370E-1,-8.906430602E-1,2.375048161E0,7.354987621E0,7.780099083E0
1.446101500E-1,-1.082179189E0,2.461239338E0,7.709329605E0,8.164715172E0
1.496149460E-1,-1.244984865E0,2.700659513E0,7.546523571E0,8.111323390E0
1.546502590E-1,-1.369483352E0,2.834734917E0,7.747636795E0,8.362839387E0
1.596855720E-1,-1.292868972E0,2.911349297E0,7.718906403E0,8.350388072E0
1.646903690E-1,-9.672574997E-1,2.930502892E0,7.431602001E0,8.046871602E0
1.697256810E-1,-6.895300746E-1,2.738966703E0,7.603984833E0,8.111595137E0
1.747609940E-1,-3.830722570E-1,2.451662540E0,8.312667847E0,8.675127682E0
1.797963070E-1,2.873042040E-2,2.049436569E0,8.389283180E0,8.636034273E0
1.848011040E-1,3.351882398E-1,1.446097851E0,8.743624687E0,8.868738513E0
1.898364160E-1,4.501099288E-1,1.005564690E0,9.011775017E0,9.078868225E0
1.948717290E-1,8.140285611E-1,8.619126081E-1,9.959878922E0,1.003019062E1
1.998765250E-1,1.101332784E0,1.101332784E0,9.892841339E0,1.001469808E1
2.049118380E-1,1.455674648E0,1.110909581E0,9.481039047E0,9.656252389E0
2.099471510E-1,1.618480325E0,1.465251446E0,9.442731857E0,9.691832917E0
2.149824640E-1,1.915361404E0,1.608903527E0,9.519346237E0,9.842516581E0
2.199872600E-1,2.011129379E0,1.963245392E0,9.270348549E0,9.687018946E0
2.250225730E-1,1.953668594E0,2.135627985E0,9.346963882E0,9.784858797E0
2.300578860E-1,1.599326730E0,2.346317768E0,9.404424667E0,9.823759788E0
2.350626820E-1,9.672574997E-1,2.432508945E0,9.088389397E0,9.457880770E0
2.400979950E-1,6.799532771E-1,2.758120298E0,8.973467827E0,9.412368930E0
2.451333080E-1,3.830722570E-1,2.901772499E0,8.427590370E0,8.921396048E0
2.501686210E-1,9.576806799E-3,2.911349297E0,6.742072105E0,7.343812546E0
2.551734170E-1,-1.340752989E-1,2.978386879E0,6.282385349E0,6.953929124E0
2.602087300E-1,-9.576806426E-2,3.016694069E0,6.540958881E0,7.203732207E0
2.652440430E-1,2.298433632E-1,3.035847664E0,6.473921299E0,7.154079675E0
2.702488390E-1,6.033388376E-1,3.102885485E0,6.148310184E0,6.913294020E0
2.752841520E-1,1.110909581E0,2.920926094E0,6.157886982E0,6.905468951E0
2.803194650E-1,1.426944256E0,2.892195702E0,6.540958881E0,7.292812144E0
2.853547780E-1,1.465251446E0,2.595314741E0,6.991068840E0,7.599846310E0
2.903595740E-1,1.513135433E0,2.164358377E0,6.933608055E0,7.419497738E0
2.953948870E-1,1.216254473E0,1.810016513E0,7.211335659E0,7.533843422E0
3.004302000E-1,1.063025594E0,1.570596337E0,7.163451672E0,7.410252096E0
3.054349960E-1,8.236053586E-1,1.436521053E0,7.603984833E0,7.782191456E0
3.104703090E-1,6.512228847E-1,1.417367458E0,7.852981567E0,8.006393773E0
3.155056220E-1,6.320692301E-1,1.484405041E0,7.862558365E0,8.026381120E0
3.205104180E-1,5.841852427E-1,1.656787634E0,7.766790390E0,7.962992567E0
3.255457310E-1,5.841852427E-1,1.934514999E0,7.795520782E0,8.053183529E0
3.305810440E-1,7.757213712E-1,2.221819162E0,7.556100368E0,7.914093556E0
3.355858400E-1,7.852981687E-1,2.346317768E0,7.661445618E0,8.051065099E0
3.406211530E-1,8.619126081E-1,2.432508945E0,7.900865555E0,8.311658657E0
3.456564660E-1,9.481038451E-1,2.528276920E0,7.929595947E0,8.376728298E0
3.506917790E-1,9.481038451E-1,2.384624958E0,7.747636795E0,8.161569273E0
3.556965750E-1,8.619126081E-1,2.106897593E0,7.575253963E0,7.909891492E0
3.607318880E-1,6.799532771E-1,1.790862918E0,7.163451672E0,7.415157874E0
3.657672010E-1,5.267243981E-1,1.321599364E0,6.703764915E0,6.853067015E0
3.708025140E-1,5.363011956E-1,1.024718285E0,6.598419666E0,6.699015497E0
3.758073100E-1,1.244984865E0,3.160346150E-1,5.497087002E0,5.645159936E0
3.808426230E-1,1.063025594E0,2.777273953E-1,6.301538944E0,6.396604489E0
3.858779360E-1,1.091755986E0,9.576806426E-2,6.713341713E0,6.802209906E0
3.908827320E-1,1.350329757E0,1.628057212E-1,6.588842869E0,6.727759397E0
3.959180450E-1,1.580173135E0,3.064578176E-1,6.493074894E0,6.689610236E0
4.009533580E-1,1.503558636E0,2.777273953E-1,6.780379295E0,6.950637702E0
4.059886710E-1,1.656787634E0,6.703764945E-2,6.818686485E0,7.017401563E0
4.109934670E-1,1.561019540E0,-8.619125932E-2,6.713341713E0,6.892979609E0
4.160287800E-1,1.426944256E0,-4.405331016E-1,5.832275391E0,6.020438153E0
4.210640930E-1,1.340752959E0,-5.841852427E-1,4.922478676E0,5.135142375E0
4.260994060E-1,9.672574997E-1,-7.661445141E-1,4.711789131E0,4.870679758E0
4.311042020E-1,6.129156351E-1,-7.086837292E-1,4.529829502E0,4.625716541E0
4.361395150E-1,4.118026793E-1,-7.374141216E-1,4.788403511E0,4.862321382E0
4.411748280E-1,3.543418646E-1,-6.895300746E-1,4.941632271E0,5.002073508E0
4.462101410E-1,4.118026793E-1,-4.884171486E-1,5.171475887E0,5.210786468E0
4.512149370E-1,4.501099288E-1,-5.075707436E-1,5.975927353E0,6.014310828E0
4.562502500E-1,3.926490843E-1,-3.351882398E-1,7.010222435E0,7.029206431E0
4.612855630E-1,6.991068721E-1,-1.244984865E-1,8.159439087E0,8.190280612E0
4.663208760E-1,9.576807022E-1,-4.788403213E-2,8.868123055E0,8.919812314E0
4.713256720E-1,1.235408068E0,-3.830722719E-2,9.212887764E0,9.295429064E0
4.763609850E-1,1.522712231E0,1.915361285E-1,9.691728592E0,9.812489069E0
4.813962980E-1,1.972822189E0,3.926490843E-1,9.950302124E0,1.015158673E1
4.864316110E-1,2.327163935E0,5.746083856E-1,1.008437729E1,1.036535248E1
4.914364080E-1,2.652775526E0,7.852981687E-1,1.025675964E1,1.062332479E1
4.964717200E-1,3.083731890E0,1.149216771E0,1.039083576E1,1.089952152E1
5.015070330E-1,3.485957623E0,1.493981838E0,1.075475407E1,1.140388606E1
5.065423460E-1,4.022258759E0,1.886630893E0,1.112824917E1,1.198231493E1
5.115776590E-1,4.338293552E0,2.365471363E0,1.132936287E1,1.236004485E1
5.165824550E-1,4.558559895E0,2.700659513E0,1.157835960E1,1.273312378E1
5.216177680E-1,4.558559895E0,2.959233284E0,1.180820274E1,1.299889157E1
5.266530810E-1,4.261679173E0,3.131615877E0,1.067813969E1,1.191602260E1
5.316578770E-1,3.552995205E0,3.141192675E0,9.260771751E0,1.040445865E1
5.366931900E-1,2.758120298E0,2.892195702E0,8.092401505E0,9.025463183E0
5.417285030E-1,2.442085743E0,3.026270866E0,7.738059998E0,8.660235023E0
5.467638160E-1,2.049436569E0,3.045424461E0,7.613561630E0,8.452284963E0
5.517686120E-1,1.714248419E0,2.806004286E0,7.479485989E0,8.170374431E0
5.568039250E-1,1.532289028E0,2.432508945E0,7.699752808E0,8.218953871E0
5.618392380E-1,1.216254473E0,2.011129379E0,8.025363922E0,8.362438783E0
5.668745510E-1,9.576807022E-1,1.465251446E0,8.571242332E0,8.748160335E0
5.718793470E-1,4.884171486E-1,9.864110947E-1,8.858546257E0,8.926667908E0
5.769146600E-1,9.576806799E-3,6.224924326E-1,9.404424667E0,9.425008852E0
5.819499730E-1,-7.182605267E-1,4.501099288E-1,1.044829655E1,1.048262362E1
5.869852860E-1,-1.321599364E0,1.244984865E-1,1.153047562E1,1.160663572E1
5.919900820E-1,-1.829170108E0,-9.576806799E-3,1.276588345E1,1.289626826E1
5.970253950E-1,-2.375048161E0,-3.926490843E-1,1.349372101E1,1.370676963E1
6.020607080E-1,-2.834734917E0,-7.757213712E-1,1.443224812E1,1.472845041E1
6.070960210E-1,-2.844311714E0,-1.235408068E0,1.516008472E1,1.547399467E1
6.121008170E-1,-2.873042107E0,-1.503558636E0,1.558146477E1,1.591531036E1
6.171361300E-1,-2.652775526E0,-1.608903527E0,1.573469353E1,1.603765472E1
6.221714430E-1,-2.528276920E0,-1.695094824E0,1.567723274E1,1.597000805E1
6.271762390E-1,-2.269703150E0,-1.656787634E0,1.538035202E1,1.563495206E1
6.322115520E-1,-1.762132406E0,-1.455674648E0,1.506431675E1,1.523672335E1
6.372468650E-1,-1.436521053E0,-1.398213744E0,1.444182491E1,1.458029153E1
6.422821780E-1,-1.206677675E0,-1.053448796E0,1.432690334E1,1.441617095E1
6.472869740E-1,-7.182605267E-1,-4.501099288E-1,1.432690334E1,1.435195654E1
6.523222870E-1,3.830722719E-2,4.405331016E-1,1.427901936E1,1.428586471E1
6.573576000E-1,6.512228847E-1,1.120486379E0,1.433648014E1,1.439493813E1
6.623623960E-1,1.608903527E0,1.800439715E0,1.333091545E1,1.354782125E1
6.673977090E-1,2.212242365E0,2.671929121E0,1.219127464E1,1.267518832E1
6.724330220E-1,2.882618904E0,3.763684988E0,1.073560047E1,1.173575451E1
6.774683350E-1,3.083731890E0,4.395754337E0,9.634267807E0,1.102955914E1
6.824731310E-1,2.499546528E0,4.405331135E0,1.023760605E1,1.142205117E1
6.875084440E-1,1.493981838E0,3.543418407E0,1.192312431E1,1.252791639E1
6.925437570E-1,4.979939461E-1,2.509123325E0,1.362779617E1,1.386580421E1
6.975485530E-1,-1.532289088E-1,1.264138460E0,1.527500725E1,1.532799307E1
7.025838660E-1,-7.757213712E-1,-9.576806426E-2,1.697010231E1,1.698809252E1
7.076191790E-1,-1.398213744E0,-1.561019540E0,1.880884933E1,1.892523704E1
7.126239750E-1,-2.068590164E0,-2.892195702E0,1.982398987E1,2.014036831E1
7.176592880E-1,-2.413355350E0,-3.811569214E0,2.004425621E1,2.054566988E1
7.226946010E-1,-2.308010340E0,-4.252102375E0,1.974737549E1,2.033140735E1
7.277299140E-1,-1.685518026E0,-4.194641590E0,1.910573006E1,1.963326030E1
7.327347100E-1,-9.672574997E-1,-3.744531393E0,1.809058762E1,1.849936385E1
7.377700230E-1,-1.244984865E-1,-2.901772499E0,1.682645035E1,1.707528081E1
7.428053360E-1,1.120486379E0,-1.790862918E0,1.539950562E1,1.554372712E1
7.478101320E-1,2.652775526E0,-8.044517636E-1,1.446097851E1,1.472427452E1
7.528454450E-1,4.271255970E0,-2.011129409E-1,1.391510010E1,1.455726914E1
7.578807580E-1,5.908889771E0,2.873041928E-1,1.337879944E1,1.462839008E1
7.629160720E-1,6.971915245E0,4.884171486E-1,1.267011547E1,1.446989909E1
7.679208670E-1,7.316680431E0,6.033388376E-1,1.204762268E1,1.410826150E1
7.729561800E-1,7.335834026E0,6.033388376E-1,1.172201157E1,1.384138843E1
7.779914930E-1,7.268796444E0,3.256114423E-1,1.179862595E1,1.386178195E1
7.829962890E-1,7.058106422E0,-1.819593310E-1,1.180820274E1,1.375803865E1
7.880316020E-1,6.052541733E0,-1.398213744E0,1.059194851E1,1.227915454E1
7.930669150E-1,5.995080948E0,-9.385270476E-1,1.170285797E1,1.318251544E1
7.981022280E-1,6.004657745E0,-4.979939461E-1,1.230619717E1,1.370205829E1
8.031070240E-1,5.947196960E0,-5.746084079E-2,1.289995861E1,1.420497749E1
8.081423370E-1,5.956773758E0,-3.830722719E-2,1.296699619E1,1.426981469E1
8.131776500E-1,6.406883717E0,-2.106897533E-1,1.283292103E1,1.434490890E1
8.182129630E-1,7.153874874E0,-1.340752989E-1,1.245942593E1,1.436778328E1
8.232177590E-1,7.259219646E0,-9.576806799E-3,1.262223148E1,1.456080661E1
8.282530720E-1,7.374141216E0,2.298433632E-1,1.216254425E1,1.422526869E1
8.332883850E-1,7.259219646E0,3.064578176E-1,1.183693314E1,1.388895865E1
8.382931800E-1,7.048529625E0,3.734954596E-1,1.124317074E1,1.327517069E1
8.433284940E-1,6.837840080E0,4.405331016E-1,1.042914295E1,1.247866776E1
8.483638070E-1,6.512228489E0,4.596867263E-1,9.758766174E0,1.174112214E1
8.533991200E-1,5.928043365E0,4.501099288E-1,8.925583839E0,1.072428757E1
8.584039160E-1,5.621585369E0,3.639186621E-1,8.370129585E0,1.008928779E1
8.634392290E-1,5.104437828E0,2.011129409E-1,8.331821442E0,9.773176581E0
8.684745420E-1,4.663905144E0,-9.576806799E-3,8.111555099E0,9.356785187E0
8.735098550E-1,4.414907932E0,-3.830722570E-1,7.747636795E0,8.925470985E0
8.785146510E-1,4.252102375E0,-5.746083856E-1,7.335834026E0,8.498529889E0
8.835499640E-1,4.108449936E0,-6.512228847E-1,7.019799232E0,8.159720178E0
8.885852770E-1,4.175487995E0,-3.447650373E-1,6.847416878E0,8.027495302E0
8.935900730E-1,4.338293552E0,-2.106897533E-1,8.006210327E0,9.108489717E0
8.986253860E-1,4.951209068E0,-4.118026793E-1,9.126696587E0,1.039137350E1
9.036606990E-1,4.223371983E0,-7.661445439E-2,5.793968201E0,7.170272532E0
9.086960120E-1,3.878606796E0,-2.585737705E-1,5.410895824E0,6.662450352E0
9.137008080E-1,3.754108191E0,-9.576806426E-2,4.884171486E0,6.160976459E0
9.187361210E-1,3.983951569E0,7.565677166E-1,4.558559895E0,6.101207514E0
9.237714340E-1,4.434061527E0,1.417367458E0,3.926490784E0,6.089922989E0
9.287762300E-1,5.439626217E0,1.953668594E0,2.920926094E0,6.475968160E0
9.338115430E-1,6.426037312E0,2.355894566E0,1.963245392E0,7.120289826E0
9.388468560E-1,7.134721279E0,2.537853718E0,1.551442742E0,7.729936857E0
9.438821690E-1,7.460332394E0,2.461239338E0,1.474828243E0,7.993083063E0
9.488869650E-1,7.603984833E0,2.231395960E0,1.312022567E0,8.032503749E0
9.539222780E-1,7.508216381E0,1.848323703E0,1.359906554E0,7.851048310E0
9.589575910E-1,7.144298077E0,1.532289028E0,1.455674648E0,7.450361961E0
9.639623870E-1,6.665457726E0,1.369483352E0,1.819593310E0,7.043772509E0
9.689977000E-1,6.368576527E0,1.225831270E0,2.212242365E0,6.852404363E0
9.740330130E-1,6.110002518E0,1.063025594E0,2.892195702E0,6.843022005E0
9.790683260E-1,5.985504150E0,8.331822157E-1,3.658340216E0,7.064269649E0
9.840731220E-1,5.995080948E0,4.979939461E-1,4.702212334E0,7.635430202E0
9.891084350E-1,6.177040577E0,1.819593310E-1,5.889736176E0,8.536857250E0
9.941437480E-1,6.588842869E0,-1.723825186E-1,6.617573261E0,9.339959419E0
9.991790610E-1,6.885724068E0,-4.309563041E-1,6.866570473E0,9.733894869E0
1.004183857E0,7.278373241E0,-7.374141216E-1,6.694188118E0,9.916181280E0
1.009219170E0,7.479485989E0,-9.768342972E-1,5.975927353E0,9.623337447E0
1.014254483E0,7.460332394E0,-1.283292055E0,4.865017891E0,8.998433030E0
1.019259279E0,7.105990410E0,-1.369483352E0,3.715801001E0,8.134971508E0
1.024294592E0,6.607996464E0,-1.302445769E0,2.461239338E0,7.170751796E0
1.029329905E0,6.368576527E0,-1.053448796E0,1.216254473E0,6.568698218E0
1.034365218E0,6.177040577E0,-7.182605267E-1,1.532289088E-1,6.220547208E0
1.039370014E0,5.841852188E0,-3.734954596E-1,-2.777273953E-1,5.860364183E0
1.044405327E0,5.343858242E0,-2.106897533E-1,1.915361360E-2,5.348044310E0
1.049440640E0,4.817133904E0,-2.777273953E-1,1.331176162E0,5.005391246E0
1.054445436E0,4.328716755E0,-8.140285611E-1,3.351882458E0,5.534938776E0
1.059480749E0,3.725377798E0,-1.551442742E0,5.544970989E0,6.857996617E0
1.064516062E0,3.055001259E0,-2.269703150E0,7.948749542E0,8.812899884E0
1.069551375E0,2.614468336E0,-2.882618904E0,1.014183807E1,1.086286408E1
1.074556171E0,2.518700123E0,-3.150769472E0,1.199016190E1,1.265050121E1
1.079591484E0,2.758120298E0,-3.150769472E0,1.338837624E1,1.402794333E1
1.084626797E0,3.284844637E0,-2.978386879E0,1.445140171E1,1.511634890E1
1.089662109E0,4.012681961E0,-2.767697096E0,1.486320400E1,1.564214170E1
1.094666906E0,4.568136692E0,-2.231395960E0,1.492066479E1,1.576303392E1
1.099702219E0,5.027823448E0,-1.589749932E0,1.430774975E1,1.524854145E1
1.104737532E0,5.458779812E0,-1.024718285E0,1.321599293E1,1.433564765E1
1.109742328E0,5.746084213E0,-2.873041928E-1,1.182735634E1,1.315242888E1
1.114777641E0,5.573701382E0,4.501099288E-1,1.011310768E1,1.155611064E1
1.119812954E0,5.114014626E0,1.120486379E0,8.437167168E0,9.929472550E0
1.124848267E0,4.328716755E0,1.714248419E0,7.201758862E0,8.575649660E0
1.129853063E0,3.265691042E0,2.011129379E0,6.358999729E0,7.426052580E0
1.134888376E0,2.422932148E0,2.116474390E0,5.631162167E0,6.485372108E0
1.139923689E0,1.723825216E0,1.982398987E0,5.018246651E0,5.664298594E0
1.144959002E0,1.235408068E0,1.781286120E0,4.654327869E0,5.134392004E0
1.149963798E0,9.959878922E-1,1.704671621E0,6.167463779E0,6.475763020E0
1.154999111E0,8.140285611E-1,1.848323703E0,7.479485989E0,7.747364304E0
1.160034424E0,8.810662031E-1,1.915361404E0,8.542511940E0,8.798829309E0
1.165069737E0,1.149216771E0,2.059013367E0,1.008437729E1,1.035639419E1
1.170074533E0,1.302445769E0,2.049436569E0,1.212423706E1,1.236501838E1
1.175109846E0,1.618480325E0,2.212242365E0,1.435563374E1,1.461498255E1
1.180145159E0,2.173935175E0,2.394201756E0,1.622311020E1,1.654229430E1
1.185149954E0,2.719813108E0,2.547430515E0,1.807143402E1,1.845165340E1
1.190185268E0,3.169923067E0,2.681505919E0,1.958456993E1,2.001984679E1
1.195220581E0,3.505111217E0,2.949656487E0,2.074336433E1,2.124319754E1
1.200255894E0,4.242525578E0,3.093308687E0,2.098278427E1,2.162972070E1
1.205260690E0,4.098873138E0,3.380612850E0,2.176808167E1,2.240711234E1
1.210296003E0,3.610456228E0,3.869029999E0,2.186384964E1,2.249517078E1
1.215331316E0,2.825158119E0,4.501099110E0,2.129881859E1,2.195179001E1
1.220336112E0,1.752555609E0,5.276820660E0,2.038902092E1,2.113358610E1
1.225371425E0,4.884171486E-1,5.861005783E0,1.911530685E1,1.999962240E1
1.230406738E0,-6.320692301E-1,6.033388138E0,1.781286049E1,1.881752595E1
1.235442051E0,-1.580173135E0,5.870582581E0,1.629014778E1,1.738762783E1
1.240446847E0,-2.422932148E0,5.382165432E0,1.452801609E1,1.568124856E1
1.245482160E0,-3.150769472E0,5.008669853E0,1.284249783E1,1.414015107E1
1.250517473E0,-3.562572241E0,4.970362663E0,1.129105568E1,1.284073068E1
1.255552786E0,-3.897760391E0,5.276820660E0,9.998186111E0,1.195830665E1
1.260557582E0,-3.974374771E0,5.765237808E0,9.002198219E0,1.140496359E1
1.265592895E0,-4.003105164E0,6.263231754E0,7.920019150E0,1.086184267E1
1.270628208E0,-3.955221176E0,6.646304131E0,7.058106422E0,1.047062555E1
1.275663521E0,-3.869029999E0,6.742072105E0,6.253654957E0,9.976629176E0
1.280668317E0,-3.888183594E0,6.646304131E0,5.765237808E0,9.619215001E0
1.285703630E0,-4.031835556E0,6.531382084E0,5.449203014E0,9.413206859E0
1.290738943E0,-4.194641590E0,6.473921299E0,4.903325081E0,9.140529082E0
1.295774256E0,-4.290409565E0,6.301538944E0,4.845864296E0,9.033239069E0
1.300779052E0,-4.319139957E0,6.062118530E0,5.276820660E0,9.124093781E0
1.305814365E0,-4.089296341E0,5.698200226E0,5.889736176E0,9.158647422E0
1.310849678E0,-3.983951569E0,5.200206280E0,6.856993675E0,9.483268303E0
1.315854474E0,-3.734954596E0,4.692635536E0,7.977479935E0,9.980526049E0
1.320889787E0,-3.256114244E0,4.127603531E0,9.097966194E0,1.050772952E1
1.325925100E0,-2.595314741E0,3.409343243E0,9.835380554E0,1.072818673E1
1.330960413E0,-1.877054095E0,2.528276920E0,1.048660374E1,1.094917231E1
1.335965209E0,-1.273715258E0,1.580173135E0,1.038125896E1,1.057779917E1
1.341000522E0,-6.320692301E-1,9.576807022E-1,1.022802925E1,1.029219346E1
1.346035835E0,6.895300746E-1,7.278373241E-1,9.653421402E0,9.705346138E0
1.351071148E0,2.106897593E0,6.224924326E-1,9.107542992E0,9.368770124E0
1.356075944E0,3.447650433E0,9.959878922E-1,8.676587105E0,9.389432846E0
1.361111257E0,4.510675907E0,1.532289028E0,8.686163902E0,9.906742661E0
1.366146570E0,5.305551052E0,1.972822189E0,8.983044624E0,1.061772057E1
1.371181883E0,6.081272125E0,2.164358377E0,9.414001465E0,1.141445318E1
1.376186679E0,6.751648903E0,2.020706177E0,9.979032516E0,1.221675515E1
1.381221992E0,7.632715225E0,1.695094824E0,1.131978607E1,1.375751594E1
1.386257305E0,8.724471092E0,1.513135433E0,1.304361057E1,1.576520699E1
1.391292618E0,9.950302124E0,1.283292055E0,1.474828243E1,1.783724153E1
1.396297413E0,1.136767006E1,1.015141487E0,1.683602715E1,2.033977003E1
1.401332727E0,1.296699619E1,5.650315881E-1,1.867477417E1,2.274223914E1
1.406368040E0,1.456632328E1,8.619125932E-2,1.985272026E1,2.462347873E1
1.411403353E0,1.595495987E1,-3.256114423E-1,2.043690491E1,2.592940125E1
1.416408148E0,1.652956772E1,-6.799532771E-1,1.967076111E1,2.570268056E1
1.421443462E0,1.622311020E1,-9.289502501E-1,1.844492912E1,2.458185639E1
1.426478775E0,1.553358078E1,-1.398213744E0,1.620395660E1,2.249033888E1
1.431514088E0,1.466209126E1,-1.388636947E0,1.378102493E1,2.016982600E1
1.436518883E0,1.385763931E1,-1.254561663E0,1.154005241E1,1.807708223E1
1.441554197E0,1.302445698E1,-1.024718285E0,1.020887566E1,1.658033984E1
1.446589510E0,1.222000504E1,-8.523358107E-1,9.519346237E0,1.551363762E1
1.451624823E0,1.172201157E1,-8.140285611E-1,9.097966194E0,1.486072631E1
1.456629619E0,1.125274754E1,-9.097966552E-1,8.944737434E0,1.440348516E1
1.461664932E0,1.090798283E1,-1.120486379E0,8.896853447E0,1.412067917E1
1.466700245E0,1.053448772E1,-1.513135433E0,9.059659004E0,1.397649569E1
1.471735558E0,1.003649330E1,-1.819593310E0,9.078812599E0,1.365529040E1
1.476740354E0,9.433155060E0,-2.193088770E0,8.906430244E0,1.315745235E1
1.481775667E0,8.599972725E0,-2.528276920E0,8.408436775E0,1.229038340E1
1.486810980E0,7.728483200E0,-2.719813108E0,7.862558365E0,1.135546828E1
1.491846293E0,6.991068840E0,-2.920926094E0,7.287950039E0,1.051290010E1
1.496851089E0,6.224924564E0,-3.227383852E0,6.828263283E0,9.787281125E0
1.501886402E0,5.363011837E0,-3.552995205E0,6.655880928E0,9.256696053E0
1.506921715E0,4.367023945E0,-4.003105164E0,5.889736176E0,8.353726193E0
1.511957028E0,3.485957623E0,-4.146757126E0,4.979939461E0,7.358484371E0
1.516961824E0,2.643198729E0,-4.223371983E0,3.916913986E0,6.337632491E0
1.521997137E0,1.963245392E0,-4.175487995E0,3.543418407E0,5.817632377E0
1.527032450E0,1.532289028E0,-4.175487995E0,3.457227230E0,5.633385286E0
1.532067763E0,1.244984865E0,-4.098873138E0,3.323152065E0,5.421631486E0
1.537072559E0,1.063025594E0,-4.003105164E0,3.447650433E0,5.388985792E0
1.542107872E0,1.072602391E0,-3.888183594E0,3.782838583E0,5.529766296E0
1.547143185E0,1.321599364E0,-3.706224203E0,4.175487995E0,5.737370715E0
1.552178498E0,1.637633920E0,-3.332728863E0,4.730942726E0,6.014211969E0
1.557183294E0,1.991975784E0,-3.055001259E0,4.788403511E0,6.019120235E0
1.562218607E0,2.394201756E0,-2.700659513E0,5.037400246E0,6.196867361E0
1.567253920E0,2.873042107E0,-2.212242365E0,5.114014626E0,6.269093461E0
1.572258716E0,3.055001259E0,-1.877054095E0,5.267243862E0,6.371830402E0
1.577294029E0,3.313575268E0,-1.532289028E0,5.315127850E0,6.448121802E0
1.582329342E0,3.361459255E0,-1.398213744E0,5.018246651E0,6.199774951E0
1.587364655E0,3.284844637E0,-1.359906554E0,4.817133904E0,5.987013376E0
1.592369451E0,3.074155092E0,-1.426944256E0,4.472368717E0,5.611477647E0
1.597404764E0,2.949656487E0,-1.493981838E0,4.070142746E0,5.243902849E0
1.602440077E0,2.719813108E0,-1.522712231E0,3.687070608E0,4.828097509E0
1.607475390E0,2.470816135E0,-1.292868972E0,2.940079689E0,4.052222986E0
1.612480186E0,2.240972757E0,-9.672574997E-1,2.576161146E0,3.548824062E0
1.617515499E0,2.059013367E0,-8.619126081E-1,1.896207690E0,2.928827921E0
1.622550812E0,1.953668594E0,-8.044517636E-1,1.407790542E0,2.538865460E0
1.627586125E0,1.886630893E0,-7.757213712E-1,1.225831270E0,2.379870180E0
1.632621438E0,1.829170108E0,-6.129156351E-1,1.082179189E0,2.211931431E0
1.637626234E0,1.561019540E0,-6.033388376E-1,1.101332784E0,2.003430472E0
1.642661547E0,1.637633920E0,-4.979939461E-1,5.841852427E-1,1.808622466E0
1.647696860E0,1.790862918E0,-2.394201756E-1,9.576806799E-3,1.806821443E0
1.652732173E0,1.963245392E0,2.394201756E-1,-4.118026793E-1,2.020206904E0
1.657736969E0,2.288856745E0,7.278373241E-1,-3.734954596E-1,2.430660656E0
1.662772282E0,2.748543501E0,1.312022567E0,-1.436520964E-1,3.049021239E0
1.667807595E0,3.303998232E0,1.924938202E0,5.650315881E-1,3.865365713E0
1.672842908E0,4.156333923E0,2.700659513E0,1.551442742E0,5.193808629E0
1.677878221E0,4.999093056E0,3.275267839E0,2.557007313E0,6.500507457E0
1.682883017E0,5.822698593E0,3.342305660E0,4.070142746E0,7.851171123E0
1.687918330E0,6.617573261E0,2.987963676E0,5.813121796E0,9.301214319E0
1.692953643E0,7.029376030E0,2.212242365E0,8.006210327E0,1.088143131E1
1.697988956E0,7.096413612E0,1.091755986E0,1.002691650E1,1.233248036E1
1.702993752E0,7.144298077E0,-1.915361360E-2,1.212423706E1,1.407261476E1
1.708029065E0,6.895300865E0,-9.959878922E-1,1.413536644E1,1.575898951E1
1.713064378E0,6.703764915E0,-1.628057122E0,1.578257751E1,1.722442414E1
1.718099691E0,6.483498096E0,-1.944091797E0,1.742021179E1,1.868900798E1
1.723104487E0,5.870582581E0,-1.896207690E0,1.888546371E1,1.986756359E1
1.728139800E0,5.535394192E0,-1.493981838E0,1.962287712E1,2.044333332E1
1.733175113E0,5.219359875E0,-8.331822157E-1,1.957499313E1,2.027600223E1
1.738179909E0,5.267243862E0,-2.489969730E-1,1.942176437E1,2.012487985E1
1.743215222E0,5.698200226E0,2.777273953E-1,1.863646698E1,1.949011339E1
1.748250535E0,6.263231754E0,5.841852427E-1,1.758301735E1,1.867436327E1
1.753285848E0,6.818686485E0,9.864110947E-1,1.652956772E1,1.790793403E1
1.758290644E0,6.962338448E0,1.522712231E0,1.516008472E1,1.675174552E1
1.763325957E0,6.588842869E0,1.944091797E0,1.387679291E1,1.548411201E1
1.768361270E0,5.947196960E0,2.336740971E0,1.238281155E1,1.393425749E1
1.773366066E0,4.970362663E0,2.537853718E0,1.093671322E1,1.227831025E1
1.778401379E0,4.022258759E0,2.624045134E0,9.672574997E0,1.079920763E1
1.783436692E0,2.796427488E0,2.700659513E0,8.686163902E0,9.516460048E0
1.788472005E0,1.982398987E0,2.576161146E0,8.341399193E0,8.952399259E0
1.793476801E0,1.417367458E0,2.489969730E0,8.322244644E0,8.801626877E0
1.798512114E0,9.959878922E-1,2.384624958E0,8.475474358E0,8.860705032E0
1.803547427E0,9.002198577E-1,2.461239338E0,8.657433510E0,9.045399375E0
1.808582740E0,7.374141216E-1,2.509123325E0,9.117119789E0,9.484795870E0
1.813587536E0,8.523358107E-1,2.786850691E0,9.327810287E0,9.772464268E0
1.818622849E0,1.244984865E0,3.045424461E0,9.193734169E0,9.764698942E0
1.823658162E0,1.666364431E0,3.256114244E0,9.423578262E0,1.010855468E1
1.828662958E0,2.260126352E0,3.485957623E0,9.299078941E0,1.018493696E1
1.833698271E0,2.815581083E0,3.792415380E0,9.193734169E0,1.033608529E1
1.838733584E0,3.332728863E0,4.041412354E0,8.877699852E0,1.030794112E1
1.843768897E0,3.955221176E0,4.443638325E0,8.006210327E0,9.974422285E0
1.848773693E0,4.386177540E0,4.951209068E0,6.981492043E0,9.617393399E0
1.853809006E0,5.008669853E0,5.592854977E0,7.402871609E0,1.054368572E1
1.858844319E0,5.391742229E0,6.330269337E0,7.508216381E0,1.120341499E1
1.863879632E0,5.477933407E0,6.876147270E0,7.105990410E0,1.130416982E1
1.868884428E0,5.343858242E0,7.287950039E0,6.464344501E0,1.111120095E1
1.873919741E0,4.912901878E0,7.192182064E0,5.908889771E0,1.052516347E1
1.878955054E0,4.319139957E0,6.751648903E0,5.439626217E0,9.686550793E0
1.883990368E0,3.524264812E0,6.560112476E0,4.922478676E0,8.926719133E0
1.888995163E0,2.671929121E0,6.177040577E0,4.730942726E0,8.226594350E0
1.894030476E0,1.608903527E0,5.583278179E0,5.181052685E0,7.784913147E0
1.899065789E0,6.224924326E-1,5.171475887E0,5.209783077E0,7.367055001E0
1.904070585E0,-4.405331016E-1,4.577713490E0,6.081272125E0,7.624395115E0
1.909105898E0,-1.580173135E0,3.830722809E0,7.268796444E0,8.367005804E0
1.914141211E0,-2.298433542E0,3.035847664E0,8.686163902E0,9.484124162E0
1.919176524E0,-2.911349297E0,2.298433542E0,1.052491093E1,1.115941313E1
1.924181320E0,-3.543418407E0,1.474828243E0,1.180820274E1,1.241630317E1
1.929216633E0,-3.801992416E0,8.044517636E-1,1.342668343E1,1.397777224E1
1.934251946E0,-3.725377798E0,1.723825186E-1,1.429817295E1,1.477653225E1
1.939287259E0,-3.725377798E0,-5.650315881E-1,1.462378407E1,1.510141585E1
1.944292055E0,-3.505111217E0,-1.244984865E0,1.475785923E1,1.521940212E1
1.949327368E0,-3.112462282E0,-1.848323703E0,1.465251446E1,1.509304151E1
1.954362681E0,-2.499546528E0,-2.585737944E0,1.415452003E1,1.460425318E1
1.959397994E0,-1.570596337E0,-3.332728863E0,1.333091545E1,1.383066019E1
1.964402790E0,-8.044517636E-1,-3.926490784E0,1.224873543E1,1.288782340E1
1.969438103E0,0.000000000E0,-4.175487995E0,1.075475407E1,1.153687284E1
1.974473416E0,5.075707436E-1,-4.146757126E0,9.155426979E0,1.006355136E1
1.979508729E0,1.024718285E0,-3.869029999E0,7.824251175E0,8.788534983E0
1.984513525E0,1.666364431E0,-3.371036053E0,7.422025204E0,8.320283205E0
1.989548838E0,2.633621931E0,-2.796427488E0,7.374141216E0,8.314681584E0
1.994584151E0,3.763684988E0,-2.183511972E0,8.255207062E0,9.331746506E0
1.999619464E0,5.046977043E0,-1.685518026E0,9.634267807E0,1.100600129E1
2.004624260E0,6.512228489E0,-1.120486379E0,1.171243477E1,1.344788972E1
2.009659573E0,8.006210327E0,-7.565677166E-1,1.426944256E1,1.637952348E1
2.014694886E0,9.366117477E0,-8.044517636E-1,1.689348793E1,1.933290546E1
2.019730199E0,1.091755962E1,-9.672574997E-1,1.969949150E1,2.254326198E1
2.024734995E0,1.241154194E1,-1.283292055E0,2.180638885E1,2.512392897E1
2.029770308E0,1.300530338E1,-1.561019540E0,2.359725189E1,2.698897914E1
2.034805621E0,1.338837624E1,-2.595314741E0,2.385582542E1,2.747880426E1
2.039840934E0,1.326387787E1,-3.361459255E0,2.403778458E1,2.765944598E1
2.044876247E0,1.224873543E1,-3.648763418E0,2.356852150E1,2.681082244E1
2.049881043E0,1.071644688E1,-3.600879431E0,2.228522873E1,2.498879721E1
2.054916356E0,9.174580574E0,-3.476380825E0,2.148077774E1,2.361529091E1
2.059951669E0,8.054094315E0,-3.447650433E0,2.026452255E1,2.207726439E1
2.064986982E0,7.556100368E0,-3.562572241E0,1.964203072E1,2.134469359E1
2.069991778E0,7.402871609E0,-3.849876404E0,1.859815788E1,2.038419812E1
2.075027091E0,7.259219646E0,-4.070142746E0,1.747767258E1,1.935797951E1
2.080062404E0,7.201758862E0,-4.405331135E0,1.669237518E1,1.870581894E1
2.085097717E0,7.307103634E0,-4.481945515E0,1.536119843E1,1.759113459E1
2.090102513E0,7.546523571E0,-4.443638325E0,1.452801609E1,1.696346636E1
2.095137826E0,7.766790390E0,-4.242525578E0,1.351287460E1,1.615301323E1
2.100173139E0,7.900865555E0,-3.974374771E0,1.251688671E1,1.532617970E1
2.105208452E0,7.910442352E0,-3.639186621E0,1.145386124E1,1.438783218E1
2.110213248E0,7.728483200E0,-3.495534420E0,1.042914295E1,1.344303672E1
2.115248561E0,7.441178799E0,-3.284844637E0,9.548076630E0,1.254301054E1
2.120283874E0,7.029376030E0,-3.246537447E0,9.222464561E0,1.204184310E1
2.125319187E0,6.995857239E0,-3.265691042E0,9.176975250E0,1.199264905E1
2.130323983E0,6.904877663E0,-3.301604033E0,9.088389397E0,1.188178213E1
2.135359296E0,6.720524311E0,-3.363853455E0,8.920795441E0,1.166454236E1
2.140394609E0,6.457161903E0,-3.438073635E0,8.750806808E0,1.140578406E1
2.145429922E0,6.153098583E0,-3.526659012E0,8.650250435E0,1.118591876E1
2.150465235E0,5.822698593E0,-3.615244627E0,8.664615631E0,1.104759597E1
2.155470032E0,5.442020416E0,-3.689464808E0,8.743624687E0,1.093977648E1
2.160505344E0,4.979939461E0,-3.792415380E0,8.839392662E0,1.083130066E1
2.165540657E0,4.503493309E0,-3.926490784E0,8.899248123E0,1.071892714E1
2.170575970E0,4.139574528E0,-4.005499363E0,8.925583839E0,1.062290682E1
2.175580766E0,3.722983599E0,-4.022258759E0,8.918401718E0,1.046790627E1
2.180616079E0,3.193865061E0,-4.137180328E0,8.858546257E0,1.028546921E1
2.185651392E0,2.856282711E0,-4.180276394E0,8.767566681E0,1.012439071E1
2.190686705E0,2.343923569E0,-4.175487995E0,8.638279915E0,9.876667332E0
2.195691501E0,1.810016513E0,-4.285621166E0,8.408436775E0,9.609605484E0
2.200726814E0,1.388636947E0,-4.189853191E0,8.101978302E0,9.226333765E0
2.205762127E0,7.086837292E-1,-4.242525578E0,7.687781811E0,8.809270405E0
2.210797440E0,3.184288144E-1,-4.132391930E0,7.165845871E0,8.278128231E0
2.215802236E0,-4.022258818E-1,-4.134786129E0,6.584054470E0,7.785114980E0
2.220837549E0,-7.757213712E-1,-3.967192173E0,5.975927353E0,7.214711714E0
2.225872862E0,-1.460463047E0,-3.830722809E0,5.403713226E0,6.782883324E0
2.230877658E0,-1.841141105E0,-3.672705412E0,4.735731125E0,6.269426999E0
2.235912971E0,-2.595314741E0,-3.706224203E0,4.048594952E0,6.071480670E0
2.240948284E0,-2.968810081E0,-3.653551817E0,3.390189648E0,5.801349845E0
2.245983597E0,-3.622427225E0,-3.754108191E0,2.882618904E0,5.960268371E0
2.250988393E0,-3.933673382E0,-3.696647406E0,2.566584110E0,5.977151689E0
2.256023706E0,-4.434061527E0,-3.895366192E0,2.480392933E0,6.402119063E0
2.261059019E0,-4.714183331E0,-3.869029999E0,2.662352324E0,6.654399860E0
2.266063815E0,-4.790797710E0,-3.926490784E0,3.026270866E0,6.894011019E0
2.271099128E0,-4.836287498E0,-3.818751812E0,3.526659012E0,7.099990560E0
2.276134441E0,-4.393360138E0,-3.641580820E0,4.122815132E0,7.039909714E0
2.281139237E0,-4.204218388E0,-3.569754839E0,4.836287498E0,7.335412642E0
2.286174550E0,-3.552995205E0,-3.277662039E0,5.633556366E0,7.423193430E0
2.291209863E0,-3.014299870E0,-3.241749048E0,6.497863293E0,7.862389457E0
2.296245176E0,-2.489969730E0,-3.050212860E0,7.316680431E0,8.308884419E0
2.301249972E0,-1.716642618E0,-2.892195702E0,7.975085735E0,8.655267202E0
2.306285285E0,-1.383848548E0,-2.758120298E0,8.473079681E0,9.017502075E0
2.311320598E0,-7.852981687E-1,-2.360682964E0,8.815450668E0,9.159786447E0
2.316325394E0,-3.926490843E-1,-2.152387381E0,8.961497307E0,9.224715644E0
2.321360707E0,-1.915361285E-1,-1.769315004E0,8.983044624E0,9.157633559E0
2.326396020E0,2.729389966E-1,-1.326387763E0,8.908824921E0,9.011157620E0
2.331400816E0,2.873041928E-1,-1.046266198E0,8.887276649E0,8.953262137E0
2.336436129E0,4.716577232E-1,-5.674257874E-1,9.011775017E0,9.041931319E0
2.341471442E0,7.685387731E-1,-3.184288144E-1,9.284713745E0,9.321907427E0
2.346506755E0,7.948749661E-1,-1.747767180E-1,9.706093788E0,9.740155529E0
2.351511551E0,1.273715258E0,6.464344263E-2,1.023042393E1,1.030961217E1
2.356546864E0,1.707065821E0,4.788403399E-3,1.084094524E1,1.097452461E1
2.361582177E0,2.106897593E0,1.915361360E-2,1.147780323E1,1.166959088E1
2.366586973E0,2.920926094E0,7.661445439E-2,1.211944866E1,1.246670425E1
2.371652803E0,3.452438831E0,-1.077390760E-1,1.273475838E1,1.319488585E1
2.376657599E0,3.974374771E0,-1.244984865E-1,1.329500198E1,1.387689563E1
2.381692912E0,4.635174274E0,-2.250549644E-1,1.372835255E1,1.449148557E1
2.386728225E0,4.778826714E0,-4.141969085E-1,1.403002167E1,1.482734811E1
2.391733021E0,5.176264286E0,-4.788403511E-1,1.416170311E1,1.508564997E1
2.396768334E0,5.111620426E0,-7.541735172E-1,1.421198082E1,1.512209773E1
2.401803647E0,5.295974255E0,-9.193734527E-1,1.407790565E1,1.506917445E1
2.406838961E0,5.123591423E0,-1.254561663E0,1.383609200E1,1.480751687E1
2.411843756E0,5.171475887E0,-1.575384736E0,1.347696114E1,1.452082922E1
2.416879069E0,4.989516258E0,-1.896207690E0,1.305318737E1,1.410236068E1
2.421914382E0,4.769249916E0,-2.322375536E0,1.250012684E1,1.357911425E1
2.426919178E0,4.644751072E0,-2.631227732E0,1.182256794E1,1.297189981E1
2.431954491E0,4.326322556E0,-2.944868088E0,1.105402946E1,1.223032634E1
2.436989804E0,3.986345768E0,-3.265691042E0,1.019451046E1,1.142294770E1
2.442025117E0,3.675099611E0,-3.435679436E0,9.327810287E0,1.059803261E1
2.447029913E0,3.208230257E0,-3.483563423E0,8.501810074E0,9.731841040E0
2.452065226E0,2.609679937E0,-3.507505417E0,7.694964409E0,8.850169540E0
2.457100539E0,2.008735180E0,-3.483563423E0,6.959944248E0,8.038100216E0
2.462105335E0,1.484405041E0,-3.385401249E0,6.373364925E0,7.367779884E0
2.467140648E0,1.017535686E0,-3.236960649E0,5.928043365E0,6.830445905E0
2.472175961E0,6.200982332E-1,-3.086126089E0,5.655104637E0,6.472163820E0
2.477211274E0,3.351882398E-1,-2.952050686E0,5.583278179E0,6.324551339E0
2.482216069E0,1.843535304E-1,-2.834734917E0,5.712565422E0,6.379899057E0
2.487251383E0,1.747767180E-1,-2.743755102E0,6.004657745E0,6.604139126E0
2.492286696E0,2.753331959E-1,-2.679111719E0,6.445190907E0,6.985265478E0
2.497291492E0,4.596867263E-1,-2.643198729E0,7.000645638E0,7.497122831E0
2.502326805E0,7.015010715E-1,-2.633621931E0,7.632715225E0,8.104715290E0
2.507362118E0,9.816226959E-1,-2.628833532E0,8.346187592E0,8.805293645E0
2.512397431E0,1.297657371E0,-2.614468336E0,9.095572472E0,9.552423667E0
2.517402227E0,1.649604917E0,-2.578555346E0,9.864110947E0,1.032815709E1
2.522437540E0,2.013523579E0,-2.511517525E0,1.062067890E1,1.109778436E1
2.527472853E0,2.398990154E0,-2.379836559E0,1.128626728E1,1.178128197E1
2.532477649E0,2.782062292E0,-2.169146776E0,1.180102062E1,1.231702708E1
2.537512962E0,3.126827478E0,-1.881842494E0,1.215296745E1,1.268908977E1
2.542548275E0,3.416525841E0,-1.525106430E0,1.232774448E1,1.288300751E1
2.547583588E0,3.624821424E0,-1.120486379E0,1.230619717E1,1.287778354E1
2.552588384E0,3.792415380E0,-6.703764796E-1,1.214339066E1,1.273945665E1
2.557623697E0,3.921702385E0,-2.011129409E-1,1.187045193E1,1.250311261E1
2.562659010E0,3.993528366E0,2.657563984E-1,1.155681133E1,1.223024053E1
2.567663806E0,4.003105164E0,6.871358752E-1,1.120965195E1,1.192280602E1
2.572699119E0,3.912125587E0,1.003170490E0,1.079306126E1,1.152394242E1
2.577734432E0,3.699041605E0,1.235408068E0,1.040041256E1,1.110755253E1
2.582739228E0,3.390189648E0,1.482010841E0,1.006761837E1,1.072598162E1
2.587774541E0,2.978386879E0,1.695094824E0,9.830592155E0,1.041079617E1
2.592809854E0,2.489969730E0,1.817199111E0,9.694122314E0,1.017242200E1
2.597845167E0,1.944091797E0,1.814804912E0,9.718064308E0,1.007540489E1
2.602849963E0,1.388636947E0,1.697489023E0,9.943120003E0,1.018211260E1
2.607885276E0,8.930372596E-1,1.484405041E0,1.037886429E1,1.052244258E1
2.612920589E0,4.884171486E-1,1.197100878E0,1.096065521E1,1.103664643E1
2.617955902E0,2.466027737E-1,8.810662031E-1,1.167412758E1,1.170992508E1
2.622960698E0,1.460463107E-1,5.650315881E-1,1.242830086E1,1.244199552E1
2.628026528E0,1.915361285E-1,2.944868207E-1,1.322317600E1,1.322784155E1
2.633031324E0,3.926490843E-1,7.661445439E-2,1.390791798E1,1.391367045E1
2.638066637E0,6.967126727E-1,-8.619125932E-2,1.443943024E1,1.445648585E1
2.643101950E0,1.063025594E0,-1.915361285E-1,1.485362720E1,1.489284898E1
2.648106746E0,1.467645645E0,-2.274491638E-1,1.511459541E1,1.518738659E1
2.653142059E0,1.886630893E0,-1.771709323E-1,1.511698914E1,1.523529213E1
2.658177372E0,2.255337954E0,-6.464344263E-2,1.485841560E1,1.502874720E1
2.663212685E0,2.540247917E0,3.830722719E-2,1.437957573E1,1.460227808E1
2.668217481E0,2.885013103E0,2.011129409E-1,1.371398735E1,1.401560545E1
2.673252794E0,3.227383852E0,4.955997467E-1,1.302445698E1,1.342751299E1
2.678288107E0,3.342305660E0,7.517793179E-1,1.232295609E1,1.279028639E1
2.683292903E0,3.485957623E0,9.768342972E-1,1.167412758E1,1.222257585E1
2.688328216E0,3.658340216E0,1.350329757E0,1.111627865E1,1.178042845E1
2.693363529E0,3.533841610E0,1.553836942E0,1.062307262E1,1.130274824E1
2.698368325E0,3.600879431E0,1.786074519E0,1.022802925E1,1.098949395E1
2.703403638E0,3.399766445E0,1.968033791E0,9.959878922E0,1.070657541E1
2.708438951E0,3.260902643E0,1.970427990E0,9.794678688E0,1.050960528E1
2.713474264E0,3.086126089E0,2.063801765E0,9.737217903E0,1.042098193E1
2.718479060E0,2.815581083E0,1.905784607E0,9.694122314E0,1.027304820E1
2.723514373E0,2.652775526E0,1.924938202E0,9.732429504E0,1.026950774E1
2.728549686E0,2.360682964E0,1.707065821E0,9.797073364E0,1.022103440E1
2.733554482E0,2.195482969E0,1.685518026E0,9.856928825E0,1.023817183E1
2.738589795E0,1.927332401E0,1.422155857E0,9.981427193E0,1.026479548E1
2.743625108E0,1.695094824E0,1.338358760E0,1.013226128E1,1.035988751E1
2.748660421E0,1.491587639E0,1.063025594E0,1.033576870E1,1.049680769E1
2.753665217E0,1.211466074E0,9.528923035E-1,1.054166985E1,1.065375318E1
2.758700530E0,1.247379065E0,8.188169599E-1,1.067335129E1,1.077714449E1
2.763735843E0,1.024718285E0,6.919242740E-1,1.071644688E1,1.078754098E1
2.768740639E0,1.211466074E0,7.254431248E-1,1.062067890E1,1.071413730E1
2.773775952E0,1.046266198E0,5.746083856E-1,1.047702694E1,1.054480636E1
2.778811265E0,1.122880578E0,6.847416759E-1,1.016817474E1,1.025287811E1
2.783816061E0,1.187524080E0,6.105214357E-1,9.720458984E0,9.811741575E0
2.788851373E0,1.082179189E0,6.560112834E-1,9.212887764E0,9.299395870E0
2.793886687E0,1.340752959E0,7.445967197E-1,8.676587105E0,8.811084301E0
2.798922000E0,1.244984865E0,6.607996821E-1,8.236053467E0,8.355789624E0
2.803926796E0,1.386242747E0,8.427590132E-1,7.841010571E0,8.007081770E0
2.808962108E0,1.568202138E0,8.403648138E-1,7.532158375E0,7.739436720E0
2.813997422E0,1.714248419E0,8.667010069E-1,7.352593422E0,7.599371573E0
2.819002218E0,1.561019540E0,8.882488012E-1,7.208941460E0,7.429307162E0
2.824037531E0,1.783680320E0,1.082179189E0,7.096413612E0,7.396736675E0
2.829072843E0,1.783680320E0,1.043871999E0,7.043741226E0,7.340672632E0
2.834077640E0,1.704671621E0,1.187524080E0,7.017405033E0,7.318476083E0
2.839112953E0,1.927332401E0,1.398213744E0,7.067683220E0,7.457999595E0
2.844148266E0,1.786074519E0,1.448492050E0,7.187393665E0,7.546311623E0
2.849183578E0,1.716642618E0,1.759738207E0,7.228095055E0,7.634716665E0
2.854188375E0,1.862688899E0,2.018311977E0,7.192182064E0,7.698745094E0
2.859223688E0,1.620874524E0,2.130839586E0,7.094019413E0,7.582402192E0
2.864259001E0,1.613691926E0,2.509123325E0,6.907271862E0,7.523968771E0
2.869263797E0,1.838746905E0,2.808398485E0,6.706159115E0,7.499377461E0
2.874329627E0,1.774103403E0,3.043030262E0,6.442796707E0,7.342826804E0
2.879334423E0,1.991975784E0,3.505111217E0,6.205770969E0,7.400362525E0
2.884369736E0,2.355894566E0,3.792415380E0,6.133944988E0,7.586694586E0
2.889405049E0,2.353500366E0,3.962403774E0,6.042964935E0,7.599804790E0
2.894409845E0,2.662352324E0,4.204218388E0,6.121973515E0,7.889368280E0
2.899445158E0,2.547430515E0,4.249708176E0,6.330269337E0,8.038764313E0
2.904480471E0,2.719813108E0,4.446032524E0,6.627150536E0,8.431115749E0
2.909485267E0,2.557007313E0,4.489128113E0,7.000645638E0,8.700551532E0
2.914520580E0,2.683900118E0,4.568136692E0,7.431602001E0,9.126877943E0
2.919555893E0,2.566584110E0,4.570530891E0,7.931990147E0,9.507553540E0
2.924591206E0,2.561795712E0,4.434061527E0,8.360552788E0,9.804210412E0
2.929596002E0,2.595314741E0,4.369418144E0,8.705317497E0,1.008017987E1
2.934631315E0,2.454056740E0,4.194641590E0,8.913613319E0,1.015233544E1
2.939666628E0,2.408566952E0,3.993528366E0,8.947132111E0,1.008963015E1
2.944671423E0,2.387019157E0,3.873818398E0,8.856152534E0,9.956694590E0
2.949706737E0,2.233790159E0,3.732560396E0,8.657433510E0,9.688806973E0
2.954742050E0,2.054224968E0,3.545812607E0,8.343792915E0,9.295779014E0
2.959746846E0,1.929726601E0,3.397372246E0,7.912836552E0,8.824905961E0
2.964782159E0,1.805228114E0,3.294421434E0,7.491456985E0,8.380572110E0
2.969817472E0,1.625662923E0,3.196259260E0,7.120356083E0,7.972347455E0
2.974852785E0,1.431732655E0,3.090914488E0,6.868964672E0,7.667221559E0
2.979857581E0,1.288080573E0,2.999934673E0,6.763619900E0,7.510347113E0
2.984892894E0,1.240196466E0,2.940079689E0,6.883329868E0,7.586987935E0
2.989928207E0,1.295263171E0,2.904166698E0,7.211335659E0,7.881323041E0
2.994933003E0,1.446097851E0,2.863465309E0,7.680599213E0,8.323595187E0
2.999968316E0,1.654393315E0,2.786850691E0,8.274360657E0,8.886427758E0
3.005003629E0,1.884236693E0,2.676717520E0,8.985439301E0,9.563121040E0
3.010008425E0,2.044648170E0,2.616862535E0,9.914389610E0,1.045579634E1
3.015043738E0,2.221819162E0,2.509123325E0,1.061589050E1,1.113235426E1
3.020079051E0,2.418143749E0,2.319981337E0,1.118570995E1,1.167689341E1
3.025114364E0,2.604891539E0,1.991975784E0,1.161906052E1,1.207294474E1
3.030119160E0,2.798821688E0,1.534683347E0,1.207156467E1,1.248644583E1
3.035154473E0,2.997540474E0,9.672574997E-1,1.255519390E1,1.294425470E1
3.040189786E0,3.227383852E0,3.447650373E-1,1.305318737E1,1.345067173E1
3.045194582E0,3.485957623E0,-2.992752194E-1,1.351047993E1,1.395616473E1
3.050229895E0,3.780444384E0,-9.121908545E-1,1.386721611E1,1.440220589E1
3.055265208E0,4.074931145E0,-1.436521053E0,1.416409683E1,1.480845352E1
3.060270004E0,4.364629745E0,-1.831564307E0,1.432690334E1,1.508856455E1
3.065305317E0,4.625597477E0,-2.075772762E0,1.428141308E1,1.515466080E1
3.070340630E0,4.790797710E0,-2.140416384E0,1.405635834E1,1.500381067E1
3.075375943E0,4.807557106E0,-2.042253971E0,1.369962215E1,1.466161839E1
3.080380739E0,4.675876141E0,-1.829170108E0,1.320641613E1,1.412866264E1
3.085416052E0,4.460397720E0,-1.582567334E0,1.259589481E1,1.345571378E1
3.090451365E0,4.261679173E0,-1.350329757E0,1.195185471E1,1.276056937E1
3.095456161E0,4.151545525E0,-1.139639974E0,1.135809326E1,1.214662060E1
3.100491474E0,4.153939724E0,-9.648633003E-1,1.090558910E1,1.170974168E1
3.105526787E0,4.240131378E0,-8.619126081E-1,1.059913063E1,1.144828273E1
3.110531583E0,4.386177540E0,-8.283938169E-1,1.030703831E1,1.123208923E1
3.115566896E0,4.489128113E0,-8.451532125E-1,1.001255131E1,1.100535046E1
3.120602209E0,4.556165695E0,-8.906430602E-1,9.698910713E0,1.075270942E1
3.125637522E0,4.654327869E0,-9.768342972E-1,9.394847870E0,1.052996390E1
3.130642317E0,4.809951305E0,-1.084573388E0,9.131484985E0,1.037766588E1
3.135677631E0,5.035006046E0,-1.206677675E0,8.939949036E0,1.033102346E1
3.140712944E0,5.257667065E0,-1.338358760E0,8.882488251E0,1.040830748E1
3.145717740E0,5.494692802E0,-1.486799240E0,8.856152534E0,1.052775658E1
3.150753052E0,5.741295815E0,-1.632845521E0,8.868123055E0,1.068982080E1
3.155788366E0,5.985504150E0,-1.731007814E0,8.882488251E0,1.084994219E1
3.160793162E0,6.205770969E0,-1.742978811E0,8.887276649E0,1.097876381E1
3.165828475E0,6.378153324E0,-1.666364431E0,8.815450668E0,1.100771460E1
3.170863787E0,6.502651691E0,-1.525106430E0,8.645462036E0,1.092494588E1
3.175868584E0,6.572083473E0,-1.359906554E0,8.386888504E0,1.074157930E1
3.180903897E0,6.612784863E0,-1.192312479E0,8.073247910E0,1.050370718E1
3.185939210E0,6.655880928E0,-1.027112484E0,7.706935406E0,1.023487002E1
3.190974522E0,6.722918510E0,-8.619126081E-1,7.316680431E0,9.973682328E0
3.195979319E0,6.816292286E0,-6.967126727E-1,6.916848660E0,9.736017895E0
3.201014632E0,6.947973251E0,-5.315127969E-1,6.545747280E0,9.560525384E0
3.206049945E0,7.125144482E0,-3.447650373E-1,6.239289761E0,9.477092567E0
3.211054741E0,7.345410824E0,-1.244984865E-1,6.014234543E0,9.494291821E0
3.216090054E0,7.618350029E0,6.464344263E-2,5.844246387E0,9.602012902E0
3.221125367E0,7.910442352E0,2.059013397E-1,5.726930618E0,9.768071861E0
3.226160680E0,8.197746277E0,2.777273953E-1,5.659893036E0,9.965669356E0
3.231165476E0,8.494627953E0,2.873041928E-1,5.640739441E0,1.020094060E1
3.236200789E0,8.822632790E0,2.513911724E-1,5.667075634E0,1.048893670E1
3.241236102E0,9.184157372E0,2.011129409E-1,5.719748020E0,1.082149299E1
3.246240897E0,9.519346237E0,1.436520964E-1,5.810727596E0,1.115361573E1
3.251276211E0,9.806650162E0,8.858546615E-2,5.928043365E0,1.145949095E1
3.256311524E0,9.998186111E0,6.703764945E-2,6.050147533E0,1.168642395E1
3.261346837E0,1.011310768E1,8.379705995E-2,6.191405773E0,1.185813958E1
3.266351632E0,1.014902115E1,1.340752989E-1,6.399701118E0,1.199903250E1
3.271386946E0,1.008916569E1,1.675941199E-1,6.701370716E0,1.211312187E1
3.276422259E0,9.931148529E0,1.651999205E-1,7.098807812E0,1.220852466E1
3.281427055E0,9.662998199E0,1.244984865E-1,7.601590633E0,1.229525169E1
3.286462367E0,9.320627213E0,4.548983276E-2,8.197746277E0,1.241286450E1
3.291497681E0,8.971074104E0,-6.464344263E-2,8.870517731E0,1.261627656E1
3.296532994E0,8.659827232E0,-2.035071403E-1,9.567230225E0,1.290604188E1
3.301537790E0,8.322244644E0,-3.687070608E-1,1.035492229E1,1.328985013E1
3.306573102E0,8.001421928E0,-5.219359994E-1,1.113782597E1,1.372393301E1
3.311608416E0,7.747636795E0,-6.248866320E-1,1.184890461E1,1.417084682E1
3.316613212E0,7.546523571E0,-6.871358752E-1,1.246421432E1,1.458693979E1
3.321648525E0,7.410054207E0,-6.967126727E-1,1.297417927E1,1.495739414E1
3.326683837E0,7.335834026E0,-6.560112834E-1,1.336922264E1,1.526371271E1
3.331688634E0,7.316680431E0,-5.793967843E-1,1.363258457E1,1.548279288E1
3.336723947E0,7.295132637E0,-4.596867263E-1,1.384088039E1,1.565248358E1
3.341759260E0,7.230489254E0,-3.256114423E-1,1.397974396E1,1.574227553E1
3.346794572E0,7.120356083E0,-1.628057212E-1,1.403959846E1,1.574281746E1
3.351799369E0,6.979097843E0,2.633621916E-2,1.403002167E1,1.567003536E1
3.356834682E0,6.837840080E0,2.561795712E-1,1.397016716E1,1.555593955E1
3.361869995E0,6.689399719E0,5.171475410E-1,1.379299641E1,1.533826131E1
3.366874791E0,6.512228489E0,8.044517636E-1,1.350808620E1,1.501747833E1
3.371910104E0,6.311115742E0,1.115697980E0,1.309867764E1,1.458253475E1
3.376945417E0,6.062118530E0,1.448492050E0,1.263899040E1,1.409224924E1
3.381950212E0,5.796362400E0,1.790862918E0,1.218169785E1,1.360877546E1
3.386985526E0,5.554547787E0,2.130839586E0,1.177947235E1,1.319656953E1
3.392020839E0,5.339069843E0,2.468421936E0,1.149216843E1,1.291002358E1
3.397025635E0,5.159504890E0,2.774879694E0,1.132696819E1,1.275228044E1
3.402060947E0,5.008669853E0,3.026270866E0,1.122401714E1,1.265794809E1
3.407096261E0,4.860229492E0,3.232172251E0,1.112824917E1,1.256609318E1
3.412131574E0,4.695029736E0,3.409343243E0,1.108036518E1,1.250765438E1
3.417136370E0,4.510675907E0,3.560178041E0,1.112585545E1,1.252220924E1
3.422171682E0,4.309563160E0,3.696647406E0,1.119768143E1,1.255490366E1
3.427206996E0,4.074931145E0,3.801992416E0,1.126232433E1,1.256583302E1
3.432211792E0,3.801992416E0,3.892971992E0,1.131978607E1,1.255977444E1
3.437247105E0,3.514688015E0,3.962403774E0,1.138682365E1,1.255840071E1
3.442282417E0,3.160346270E0,3.962403774E0,1.148019695E1,1.254923720E1
3.447317731E0,2.786850691E0,3.962403774E0,1.162384892E1,1.259289657E1
3.452322527E0,2.509123325E0,4.050989151E0,1.170525169E1,1.263800341E1
3.457357840E0,2.260126352E0,4.182670593E0,1.176510715E1,1.268939127E1
3.462393152E0,2.056619167E0,4.292803764E0,1.165736771E1,1.259174604E1
3.467397949E0,1.980004787E0,4.412513733E0,1.132936287E1,1.231848852E1
3.472433261E0,1.910573006E0,4.606443882E0,1.086249352E1,1.195254700E1
3.477468575E0,1.910573006E0,4.845864296E0,1.023281765E1,1.148230147E1
3.482503887E0,1.958456993E0,5.080495834E0,9.512163162E0,1.096030290E1
3.487508684E0,1.982398987E0,5.324704647E0,8.810662270E0,1.048380441E1
3.492543996E0,1.951274395E0,5.564124584E0,8.200140953E0,1.009996365E1
3.497579310E0,1.877054095E0,5.731719017E0,7.762001991E0,9.829781782E0
3.502614623E0,1.742978811E0,5.805939198E0,7.517793179E0,9.657335004E0
3.507619419E0,1.482010841E0,5.786785603E0,7.481880188E0,9.574015610E0
3.512654731E0,1.082179189E0,5.695806026E0,7.527369976E0,9.501295535E0
3.517690045E0,5.482721925E-1,5.573701382E0,7.589619160E0,9.432341622E0
3.522694841E0,-9.097966552E-2,5.437232018E0,7.714118004E0,9.438187638E0
3.527730154E0,-7.733271718E-1,5.286397457E0,7.888894558E0,9.527785175E0
3.532765466E0,-1.455674648E0,5.116408825E0,8.070854187E0,9.666194456E0
3.537770262E0,-2.092532396E0,4.903325081E0,8.207323074E0,9.786799310E0
3.542805576E0,-2.686294317E0,4.673481941E0,8.346187592E0,9.935615629E0
3.547840889E0,-3.210624456E0,4.443638325E0,8.487444878E0,1.010399681E1
3.552876201E0,-3.629609823E0,4.228160381E0,8.566453934E0,1.021937086E1
3.557880997E0,-3.950432777E0,4.022258759E0,8.619126320E0,1.029921469E1
3.562916311E0,-4.206612587E0,3.857059002E0,8.566453934E0,1.029352353E1
3.567951624E0,-4.378994942E0,3.694253206E0,8.523358345E0,1.026989488E1
3.573200556E0,-4.932055473E0,2.873042107E0,7.852981567E0,9.708185291E0
3.577991732E0,-4.194641590E0,2.202665567E0,6.301538944E0,7.883916967E0
3.583027046E0,-3.916913986E0,1.953668594E0,5.870582581E0,7.322757403E0
3.588062359E0,-4.022258759E0,1.829170108E0,5.793968201E0,7.286597033E0
3.593067155E0,-3.955221176E0,1.742978811E0,5.774814606E0,7.213198557E0
3.598102468E0,-3.811569214E0,1.561019540E0,6.186617374E0,7.432299537E0
3.603137781E0,-3.629609823E0,1.340752959E0,6.799532890E0,7.823383762E0
3.608173094E0,-3.361459255E0,1.235408068E0,7.479485989E0,8.292668574E0
3.613177890E0,-2.940079689E0,1.110909581E0,8.341399193E0,8.913872849E0
3.618213203E0,-2.662352324E0,1.235408068E0,8.935160637E0,9.404863029E0
3.623248516E0,-2.279279947E0,1.302445769E0,9.356540680E0,9.717835950E0
3.628283829E0,-1.857900500E0,1.292868972E0,9.346963882E0,9.617122141E0
3.633288625E0,-1.465251446E0,1.446097851E0,9.251194954E0,9.477487477E0
3.638323938E0,-1.216254473E0,1.589749932E0,9.059659004E0,9.278146424E0
3.643359251E0,-9.672574997E-1,1.781286120E0,8.667010307E0,8.900878326E0
3.648364046E0,-7.661445141E-1,2.001552582E0,8.216899872E0,8.491798023E0
3.653399360E0,-1.915361360E-2,2.394201756E0,7.709329605E0,8.072566622E0
3.658434673E0,-2.777273953E-1,3.217807055E0,7.393294811E0,8.067975143E0
3.663469986E0,-4.022258818E-1,3.983951569E0,7.460332394E0,8.467007452E0
3.668474781E0,-5.458779931E-1,4.587290287E0,8.226476669E0,9.434836159E0
3.673510095E0,-4.405331016E-1,4.797980309E0,8.992621422E0,1.020205492E1
3.678545408E0,4.596867263E-1,4.539406300E0,9.969455719E0,1.096392123E1
3.683580721E0,1.312022567E0,3.983951569E0,1.176031876E1,1.248592690E1
3.688585516E0,2.164358377E0,3.438073635E0,1.430774975E1,1.487334866E1
3.693620830E0,3.122039080E0,3.217807055E0,1.717121506E1,1.774688809E1
3.698656143E0,4.587290287E0,3.361459255E0,1.937388039E1,2.019133185E1
3.703660939E0,6.224924564E0,3.754108191E0,2.052309608E1,2.177247085E1
3.708696251E0,7.680599213E0,4.098873138E0,2.060928917E1,2.237264324E1
3.713731565E0,8.839392662E0,4.405331135E0,1.983356667E1,2.215653790E1
3.718766878E0,9.452308655E0,4.759673119E0,1.850238991E1,2.131523069E1
3.723771674E0,9.634267807E0,5.276820660E0,1.689348793E1,2.015077882E1
3.728806986E0,9.481039047E0,5.602431774E0,1.581130791E1,1.926849244E1
3.733842300E0,9.097966194E0,5.688623428E0,1.499727917E1,1.844049370E1
3.738847096E0,8.408436775E0,5.564124584E0,1.470997524E1,1.783380675E1
3.743882409E0,7.623138428E0,5.238513470E0,1.470039845E1,1.736824624E1
3.748917721E0,6.962338448E0,4.750096321E0,1.476743603E1,1.700337433E1
3.753922518E0,6.521805286E0,4.146757126E0,1.499727917E1,1.687151212E1
3.758957831E0,6.119579315E0,3.639186621E0,1.538992882E1,1.695708817E1
3.763993144E0,5.765237808E0,2.901772499E0,1.596453667E1,1.721989203E1
3.769028456E0,5.640739441E0,2.231395960E0,1.623268700E1,1.732908528E1
3.774033253E0,5.449203014E0,1.589749932E0,1.661575890E1,1.755860365E1
3.779068565E0,5.583278179E0,1.091755986E0,1.693179512E1,1.786198792E1
3.784103879E0,5.621585369E0,6.895300746E-1,1.720952225E1,1.811754205E1
3.789108675E0,5.803544998E0,4.022258818E-1,1.742021179E1,1.836591133E1
3.794143988E0,6.177040577E0,2.202665508E-1,1.756386375E1,1.861971153E1
3.799179300E0,6.445190907E0,-2.873042040E-2,1.734359741E1,1.850247774E1
3.804214614E0,6.531382084E0,-3.064578176E-1,1.681687355E1,1.804328419E1
3.809219410E0,6.742072105E0,-4.213795066E-1,1.626141739E1,1.760871354E1
3.814254723E0,6.761225700E0,-6.224924326E-1,1.555273438E1,1.697024503E1
3.819290035E0,6.588842869E0,-6.416460276E-1,1.458547688E1,1.601751216E1
3.824294831E0,6.177040577E0,-7.469909191E-1,1.365652657E1,1.500714975E1
3.829330145E0,5.669469833E0,-8.810662031E-1,1.269884586E1,1.393484310E1
3.834365458E0,5.497087002E0,-8.714894056E-1,1.170285797E1,1.295894841E1
3.839400770E0,5.564124584E0,-7.086837292E-1,1.064940929E1,1.203626326E1
3.844405566E0,5.631162167E0,-4.884171486E-1,9.615114212E0,1.115342817E1
3.849440880E0,5.793968201E0,-1.532289088E-1,8.762778282E0,1.050618055E1
3.854476193E0,5.889736176E0,1.244984865E-1,7.738059998E0,9.725331080E0
3.859480989E0,5.832275391E0,3.639186621E-1,6.636727333E0,8.842738417E0
3.864516301E0,5.698200226E0,3.830722570E-1,5.880159378E0,8.197103420E0
3.869551615E0,5.372588634E0,4.118026793E-1,5.075707436E0,7.402506066E0
3.874556410E0,4.999093056E0,3.543418646E-1,4.156333923E0,6.510883290E0
3.879591724E0,4.625597477E0,2.394201756E-1,3.447650433E0,5.774059884E0
3.884627036E0,4.386177540E0,2.394201756E-1,2.987963676E0,5.312607868E0
3.889662350E0,4.022258759E0,1.053448766E-1,2.604891539E0,4.793237214E0
3.894667145E0,3.734954596E0,-2.873042040E-2,2.738966703E0,4.631700538E0
3.899702459E0,3.581725836E0,-1.532289088E-1,2.509123325E0,4.375835797E0
3.904737771E0,3.514688015E0,-2.681505978E-1,2.336740971E0,4.229100962E0
3.909742568E0,3.514688015E0,-3.734954596E-1,2.116474390E0,4.119708065E0
3.914777880E0,3.418920040E0,-4.501099288E-1,2.087743998E0,4.031164619E0
3.919813194E0,3.438073635E0,-4.979939461E-1,2.030282974E0,4.023729271E0
3.924848506E0,3.428496838E0,-5.363011956E-1,1.982398987E0,3.996512890E0
3.929853303E0,3.505111217E0,-5.458779931E-1,1.934514999E0,4.040561312E0
3.934888615E0,3.485957623E0,-6.416460276E-1,1.762132406E0,3.958373503E0
3.939923929E0,3.562572241E0,-6.033388376E-1,1.551442742E0,3.932291101E0
3.944928725E0,3.390189648E0,-7.182605267E-1,1.446097851E0,3.755060988E0
3.949964038E0,3.351882458E0,-7.086837292E-1,8.236053586E-1,3.523588288E0
3.954999350E0,3.418920040E0,-7.757213712E-1,3.543418646E-1,3.523679333E0
3.960034664E0,3.466804028E0,-8.140285611E-1,-9.576806799E-3,3.561104376E0
3.965039460E0,3.533841610E0,-7.469909191E-1,-3.351882398E-1,3.627448568E0
3.970074773E0,3.696647406E0,-6.607996821E-1,-5.363011956E-1,3.793346443E0
3.975110085E0,3.706224203E0,-5.363011956E-1,-9.289502501E-1,3.858324168E0
3.980145399E0,3.687070608E0,-3.926490843E-1,-1.474828243E0,3.990461292E0
3.985180712E0,3.821146011E0,-2.585737705E-1,-1.628057122E0,4.161560672E0
3.990185508E0,4.022258759E0,-1.436520964E-1,-1.599326730E0,4.330940710E0
3.995220820E0,4.280832767E0,-2.873042040E-2,-1.359906554E0,4.491736909E0
4.000256134E0,4.501099110E0,3.830722719E-2,-9.481038451E-1,4.600028428E0
4.005291447E0,4.558559895E0,7.661445439E-2,-6.129156351E-1,4.600217784E0
4.010296243E0,4.558559895E0,6.703764945E-2,-4.022258818E-1,4.576761739E0
4.015331555E0,4.501099110E0,7.661445439E-2,-4.309563041E-1,4.522331954E0
4.020366869E0,4.146757126E0,1.628057212E-1,-9.576806426E-2,4.151056719E0
4.025402182E0,3.936067581E0,2.585737705E-1,1.819593310E-1,3.948746332E0
4.030406978E0,3.629609823E0,3.256114423E-1,2.394201756E-1,3.652042210E0
4.035442290E0,3.380612850E0,2.681505978E-1,5.363011956E-1,3.433375447E0
4.040477604E0,3.198653460E0,2.681505978E-1,4.405331016E-1,3.239962671E0
4.045512917E0,3.093308687E0,4.501099288E-1,-2.777273953E-1,3.138198542E0
4.050517713E0,3.150769472E0,7.661445141E-1,-1.426944256E0,3.542667864E0
4.055553025E0,3.265691042E0,1.503558636E0,-2.442085743E0,4.346171802E0
4.060588339E0,3.390189648E0,2.298433542E0,-2.911349297E0,5.025150478E0
4.065593135E0,3.533841610E0,3.332728863E0,-3.620033026E0,6.058032461E0
4.070628448E0,3.715801001E0,4.395754337E0,-3.552995205E0,6.764141350E0
4.075663760E0,3.773261786E0,5.190629482E0,-2.585737944E0,6.918538837E0
4.080699074E0,3.964797974E0,5.439626217E0,-1.446097851E0,6.884791598E0
4.085734387E0,4.175487995E0,5.487510204E0,2.681505978E-1,6.900679168E0
4.090739183E0,4.462791920E0,5.430049419E0,2.738966703E0,7.543466512E0
4.095774495E0,4.663905144E0,5.171475887E0,5.439626217E0,8.836611761E0
4.100809809E0,5.085284233E0,4.884171486E0,8.810662270E0,1.128463630E1
4.105845122E0,5.669469833E0,4.539406300E0,1.216254425E1,1.416603616E1
4.110849918E0,6.627150536E0,4.242525578E0,1.516966152E1,1.708908360E1
4.115885230E0,7.632715225E0,3.849876404E0,1.736275101E1,1.935316544E1
4.120920544E0,8.667010307E0,3.495534420E0,1.885673332E1,2.104547980E1
4.125955857E0,9.806650162E0,3.658340216E0,2.074336433E1,2.323447879E1
4.130960653E0,9.615114212E0,3.371036053E0,2.136585617E1,2.367095510E1
4.135995965E0,9.816226959E0,2.518700123E0,2.003467941E1,2.245196074E1
4.141031279E0,1.006522369E1,2.049436569E0,1.877054214E1,2.139724680E1
4.146066592E0,1.033337498E1,1.742978811E0,1.719994545E1,2.014087230E1
4.151071388E0,1.014183807E1,1.857900500E0,1.589749908E1,1.894832845E1
4.156106700E0,9.433155060E0,2.480392933E0,1.509304714E1,1.797044339E1
4.161142014E0,8.283937454E0,3.524264812E0,1.456632328E1,1.712372144E1
4.166146809E0,7.096413612E0,4.386177540E0,1.425986576E1,1.652093857E1
4.171182123E0,6.789956093E0,5.736507416E0,1.393425369E1,1.652798981E1
4.176217435E0,6.205770969E0,6.052541733E0,1.324472427E1,1.582932645E1
4.181252749E0,6.339846134E0,6.837840080E0,1.427901936E1,1.705403471E1
4.186257544E0,6.856993675E0,7.393294811E0,1.494939518E1,1.803229288E1
4.191292858E0,7.469909191E0,7.718906403E0,1.571553993E1,1.903573625E1
4.196328170E0,7.977479935E0,7.422025204E0,1.656787491E1,1.982980391E1
4.201332967E0,8.255207062E0,6.579266071E0,1.730529022E1,2.027087209E1
4.206368279E0,7.977479935E0,5.688623428E0,1.751597977E1,2.007013129E1
4.211403593E0,7.671022415E0,5.046977043E0,1.730529022E1,1.959054955E1
4.216438906E0,6.991068840E0,4.797980309E0,1.708502388E1,1.907337672E1
4.221443702E0,6.311115742E0,4.865017891E0,1.678814316E1,1.858333478E1
4.226479014E0,5.841852188E0,4.932055473E0,1.616564941E1,1.788241117E1
4.231514328E0,5.592854977E0,5.027823448E0,1.521754646E1,1.697447365E1
4.236519124E0,4.999093056E0,5.056553841E0,1.440351772E1,1.606303181E1
4.241554437E0,4.491522312E0,5.075707436E0,1.371398735E1,1.529738630E1
4.246589749E0,3.916913986E0,5.114014626E0,1.308191776E1,1.458190430E1
4.251625063E0,3.361459255E0,5.133168221E0,1.249773312E1,1.392272090E1
4.256629859E0,3.035847664E0,4.970362663E0,1.141555405E1,1.281544967E1
4.261665172E0,2.154781580E0,4.999093056E0,1.119528675E1,1.244863288E1
4.266700484E0,1.187524080E0,4.912901878E0,1.083136845E1,1.195262987E1
4.271735798E0,3.160346150E-1,4.616020679E0,9.854534149E0,1.088666010E1
4.276740594E0,-5.267243981E-1,4.596867085E0,9.212887764E0,1.030950661E1
4.281775907E0,-1.254561663E0,4.730942726E0,8.781931877E0,1.005375907E1
4.286811219E0,-1.723825216E0,4.912901878E0,8.283937454E0,9.784262772E0
4.291846533E0,-2.020706177E0,5.123591423E0,7.795520782E0,9.544872277E0
4.296851329E0,-2.394201756E0,5.420472622E0,7.335834026E0,9.430174248E0
4.301886642E0,-2.681505919E0,5.717353821E0,6.837840080E0,9.307774474E0
4.306921954E0,-2.844311714E0,5.793968201E0,6.004657745E0,8.815673047E0
4.311926751E0,-2.853888512E0,5.746084213E0,4.989516258E0,8.127572572E0
4.316962064E0,-2.681505919E0,5.793968201E0,4.108449936E0,7.592094729E0
4.321997377E0,-2.576161146E0,5.516240597E0,3.696647406E0,7.122550008E0
4.327032689E0,-2.336740971E0,5.209783077E0,3.236960649E0,6.563544189E0
4.332037486E0,-1.972822189E0,5.056553841E0,3.035847664E0,6.219094401E0
4.337072799E0,-1.589749932E0,5.152322292E0,2.557007313E0,5.967580435E0
4.342108112E0,-1.216254473E0,5.161899090E0,2.135627985E0,5.717113262E0
4.347112908E0,-9.768342972E-1,5.123591423E0,1.656787634E0,5.472690342E0
4.352148221E0,-5.937620401E-1,5.075707436E0,1.561019540E0,5.343420378E0
4.357183533E0,-3.064578176E-1,4.989516258E0,1.493981838E0,5.217391170E0
4.362218847E0,-1.149216816E-1,4.759673119E0,1.733402014E0,5.066791660E0
4.367223643E0,1.723825186E-1,4.529829502E0,2.154781580E0,5.019178689E0
4.372258956E0,4.788403511E-1,4.280832767E0,2.643198729E0,5.053841785E0
4.377294268E0,7.469909191E-1,4.232948780E0,2.949656487E0,5.213091616E0
4.382299064E0,1.034295082E0,4.060565948E0,3.275267839E0,5.318396521E0
4.387334378E0,1.254561663E0,3.916913986E0,3.552995205E0,5.435063483E0
4.392369691E0,1.484405041E0,3.878606796E0,3.821146011E0,5.643421466E0
4.397405003E0,1.551442742E0,3.801992416E0,4.185064793E0,5.863180727E0
4.402409799E0,1.417367458E0,3.801992416E0,4.520252705E0,6.074270438E0
4.407445113E0,1.225831270E0,3.734954596E0,4.826710701E0,6.224924443E0
4.412480426E0,1.273715258E0,3.754108191E0,4.817133904E0,6.238626284E0
4.417515738E0,1.388636947E0,3.715801001E0,4.577713490E0,6.057305543E0
4.422520534E0,1.513135433E0,3.639186621E0,4.309563160E0,5.839999377E0
4.427555848E0,1.618480325E0,3.485957623E0,3.897760391E0,5.473930505E0
4.432591161E0,1.781286120E0,3.390189648E0,3.648763418E0,5.289597392E0
4.437595957E0,1.905784607E0,3.265691042E0,3.543418407E0,5.181946252E0
4.442631269E0,2.221819162E0,3.189076662E0,3.763684988E0,5.410361821E0
4.447666583E0,2.470816135E0,3.064578056E0,4.596867085E0,6.052087081E0
4.452671378E0,2.911349297E0,2.758120298E0,6.148310184E0,7.340633517E0
4.457706692E0,3.371036053E0,2.327163935E0,8.283937454E0,9.241384950E0
4.462742004E0,4.050989151E0,1.819593310E0,1.088882923E1,1.175959332E1
4.467777318E0,4.874594688E0,1.379060149E0,1.379060173E1,1.469163627E1
4.472782113E0,5.947196960E0,9.193734527E-1,1.703713989E1,1.806871703E1
4.477817427E0,7.096413612E0,6.129156351E-1,1.994848824E1,2.118199553E1
4.482852739E0,8.130708694E0,2.681505978E-1,2.227565193E1,2.371465786E1
4.487857536E0,9.241618156E0,7.661445439E-2,2.375048065E1,2.548526451E1
4.492892848E0,1.028549004E1,1.149216816E-1,2.415270615E1,2.625181377E1
4.497928162E0,1.115697956E1,5.554547906E-1,2.335783195E1,2.589160166E1
4.502963474E0,1.158793640E1,1.034295082E0,2.159569931E1,2.453006859E1
4.507968271E0,1.183693314E1,1.848323703E0,2.003467941E1,2.334347159E1
4.513003583E0,1.178904915E1,2.489969730E0,1.799481964E1,2.165629615E1
4.518038897E0,1.149216843E1,3.179499865E0,1.598369026E1,1.994135173E1
4.523074209E0,1.104205799E1,3.620033026E0,1.425986576E1,1.839498451E1
4.528079006E0,1.069729328E1,3.916913986E0,1.296699619E1,1.726028068E1
4.533114318E0,1.017056847E1,3.859453201E0,1.199973869E1,1.619659133E1
4.538149632E0,9.653421402E0,3.591302633E0,1.127190113E1,1.526898014E1
4.543184944E0,9.126696587E0,3.179499865E0,1.086967564E1,1.454495302E1
4.548189741E0,8.561665535E0,2.633621931E0,1.037168217E1,1.370437420E1
4.553225053E0,8.178592682E0,2.202665567E0,1.012268448E1,1.319885809E1
4.558260367E0,7.776367188E0,1.953668594E0,9.806650162E0,1.266724497E1
4.563265163E0,7.402871609E0,1.752555609E0,9.634267807E0,1.227571079E1
4.568300476E0,7.058106422E0,1.618480325E0,9.327810287E0,1.180865740E1
4.573335788E0,6.732495308E0,1.570596337E0,9.021351814E0,1.136565240E1
4.578340584E0,6.560112476E0,1.628057122E0,8.571242332E0,1.091566951E1
4.583375898E0,6.320692539E0,1.714248419E0,8.121131897E0,1.043276498E1
4.588411211E0,6.100425720E0,1.790862918E0,7.709329605E0,9.992804757E0
4.593446523E0,5.899312973E0,1.972822189E0,7.747636795E0,9.935783656E0
4.598451319E0,5.736507416E0,1.924938202E0,7.603984833E0,9.717689527E0
4.603486633E0,5.372588634E0,1.944091797E0,7.728483200E0,9.611121377E0
4.608521946E0,5.075707436E0,1.896207690E0,7.795520782E0,9.493605945E0
4.613526742E0,4.759673119E0,1.800439715E0,7.623138428E0,9.165604773E0
4.618562054E0,4.587290287E0,1.838746905E0,7.441178799E0,8.932825100E0
4.623597368E0,4.443638325E0,1.905784607E0,7.230489254E0,8.698155631E0
4.628632681E0,4.194641590E0,2.068590164E0,7.182605267E0,8.571108549E0
4.633637477E0,3.926490784E0,2.126051188E0,7.105990410E0,8.392408667E0
4.638672789E0,3.667917013E0,2.193088770E0,7.029376030E0,8.226504783E0
4.643708103E0,3.505111217E0,2.164358377E0,6.924031258E0,8.056826962E0
4.648712898E0,3.189076662E0,2.164358377E0,6.665457726E0,7.699544391E0
4.653748212E0,2.940079689E0,2.145204782E0,6.617573261E0,7.552367046E0
4.658783524E0,2.729389906E0,2.068590164E0,6.445190907E0,7.298569747E0
4.663818837E0,2.432508945E0,2.039859772E0,6.148310184E0,6.919526413E0
4.668823633E0,2.394201756E0,1.915361404E0,5.918466568E0,6.665512574E0
4.673858947E0,2.317587137E0,1.944091797E0,5.746084213E0,6.493703630E0
4.678894260E0,2.269703150E0,1.781286120E0,5.372588634E0,6.098298227E0
4.683899056E0,2.221819162E0,1.771709204E0,4.979939461E0,5.733692608E0
4.688934368E0,2.164358377E0,1.752555609E0,4.654327869E0,5.423897700E0
4.693969682E0,2.240972757E0,1.656787634E0,4.299986362E0,5.124137672E0
4.699004995E0,2.365471363E0,1.723825216E0,3.907337189E0,4.882039743E0
4.704009791E0,2.298433542E0,1.675941229E0,3.323152065E0,4.374347426E0
4.709045103E0,2.279279947E0,1.436521053E0,2.767697096E0,3.862493628E0
4.714080417E0,1.857900500E0,1.388636947E0,2.557007313E0,3.452302599E0
4.719085212E0,1.905784607E0,1.187524080E0,1.532289028E0,2.718480840E0
4.724120526E0,1.877054095E0,1.158793569E0,8.427590132E-1,2.361435446E0
4.729155838E0,1.819593310E0,1.005564690E0,1.244984865E-1,2.082685774E0
4.734191152E0,1.896207690E0,9.768342972E-1,-1.915361285E-1,2.141610361E0
4.739195947E0,2.011129379E0,8.619126081E-1,-3.639186621E-1,2.218100881E0
4.744231261E0,2.087743998E0,8.906430602E-1,-2.873041928E-1,2.287895050E0
4.749266573E0,2.298433542E0,8.810662031E-1,2.202665508E-1,2.471354235E0
4.754271369E0,2.518700123E0,8.331822157E-1,6.703764796E-1,2.736320072E0
4.759306682E0,2.844311714E0,6.703764796E-1,1.072602391E0,3.112874819E0
4.764341996E0,3.457227230E0,6.799532771E-1,1.407790542E0,3.794289234E0
4.769377308E0,4.194641590E0,5.841852427E-1,1.886630893E0,4.636341941E0
4.774382105E0,5.027823448E0,4.596867263E-1,1.695094824E0,5.325755061E0
4.779417417E0,5.918466568E0,3.830722570E-1,1.647210717E0,6.155346783E0
4.784452731E0,6.713341713E0,2.298433632E-1,1.149216771E0,6.814872274E0
4.789457527E0,7.393294811E0,9.576806426E-2,5.075707436E-1,7.411316195E0
4.794492840E0,7.900865555E0,1.723825186E-1,-3.160346150E-1,7.909062531E0
4.799528152E0,8.130708694E0,5.075707436E-1,-1.417367458E0,8.268916643E0
4.804563466E0,8.149862289E0,9.289502501E-1,-2.298433542E0,8.518567993E0
4.809568262E0,8.044517517E0,1.302445769E0,-2.566584110E0,8.543885595E0
4.814603575E0,7.757213593E0,1.561019540E0,-2.260126352E0,8.229174676E0
4.819638887E0,7.584830761E0,1.503558636E0,-1.244984865E0,7.832006994E0
4.824674201E0,7.690176010E0,1.158793569E0,7.852981687E-1,7.816540335E0
4.829678997E0,8.121131897E0,2.489969730E-1,3.696647406E0,8.926364592E0
4.834714310E0,8.868123055E0,-7.948749661E-1,7.297526836E0,1.151213840E1
4.839749622E0,9.892841339E0,-1.877054095E0,1.174116516E1,1.546759843E1
4.844754418E0,1.104205799E1,-2.729389906E0,1.670195198E1,2.020722183E1
4.849789732E0,1.240196514E1,-3.323152065E0,2.132754898E1,2.489410421E1
4.854825045E0,1.366610336E1,-3.332728863E0,2.467943192E1,2.840675663E1
4.859860357E0,1.482489681E1,-3.093308687E0,2.639367867E1,3.042979457E1
4.864865153E0,1.584003830E1,-2.518700123E0,2.647987175E1,3.095858962E1
4.869900467E0,1.649126053E1,-1.819593310E0,2.529234695E1,3.024856043E1
4.874935780E0,1.631887817E1,-1.302445769E0,2.359725189E1,2.871989636E1
4.879940576E0,1.588792229E1,-4.788403511E-1,2.235226631E1,2.742770811E1
4.884975888E0,1.497812557E1,2.011129409E-1,2.060928917E1,2.547798053E1
4.890011202E0,1.393425369E1,7.852981687E-1,1.897165489E1,2.355215083E1
4.895046515E0,1.305318737E1,1.455674648E0,1.757344055E1,2.193924570E1
4.900051311E0,1.217212105E1,2.030282974E0,1.625184059E1,2.040600163E1
4.905086623E0,1.141555405E1,2.451662540E0,1.531331444E1,1.925676823E1
4.910121937E0,1.068771648E1,2.834734917E0,1.443224812E1,1.818111084E1
4.915126732E0,9.758766174E0,3.035847664E0,1.366610336E1,1.706494270E1
4.920162046E0,8.868123055E0,3.198653460E0,1.290953541E1,1.598534000E1
4.925197358E0,8.015787125E0,3.351882458E0,1.226788998E1,1.503293330E1
4.930202155E0,7.201758862E0,3.505111217E0,1.158793640E1,1.408656826E1
4.935237467E0,6.445190907E0,3.696647406E0,1.112824917E1,1.338071812E1
4.940272781E0,5.688623428E0,3.830722809E0,1.070687008E1,1.271502814E1
4.945308093E0,5.152322292E0,4.165910721E0,1.032379818E1,1.226711237E1
4.950312890E0,4.807557106E0,4.443638325E0,1.016099167E1,1.208736028E1
4.955348202E0,4.357447147E0,4.596867085E0,1.005564690E1,1.188421504E1
4.960383516E0,4.070142746E0,4.730942726E0,9.969455719E0,1.176171452E1
4.965388312E0,3.811569214E0,4.865017891E0,1.004607010E1,1.179491345E1
4.970423625E0,3.438073635E0,4.922478676E0,1.004607010E1,1.170361786E1
4.975458937E0,3.227383852E0,5.085284233E0,1.006522369E1,1.172965687E1
4.980463733E0,2.853888512E0,5.037400246E0,1.028549004E1,1.180302445E1
4.985499047E0,2.652775526E0,5.066130638E0,1.069729328E1,1.212992091E1
4.990534360E0,2.394201756E0,5.056553841E0,1.082179165E1,1.218245104E1
4.995539156E0,2.260126352E0,5.094861031E0,1.091755962E1,1.225801322E1
5.000574468E0,2.269703150E0,5.228936672E0,1.098459721E1,1.237556895E1
5.005609781E0,2.240972757E0,5.583278179E0,1.080263805E1,1.236494816E1
5.010645095E0,2.260126352E0,5.793968201E0,1.047702694E1,1.218385539E1
5.015649891E0,2.183511972E0,6.014234543E0,1.007480049E1,1.193483752E1
5.020685203E0,2.097320795E0,6.157886982E0,9.672574997E0,1.165663046E1
5.025720516E0,1.934514999E0,6.157886982E0,9.193734169E0,1.123328395E1
5.030725312E0,1.733402014E0,6.186617374E0,8.686163902E0,1.080408999E1
5.035760626E0,1.407790542E0,6.090848923E0,7.987056732E0,1.014265202E1
5.040795938E0,1.063025594E0,5.851428986E0,7.268796444E0,9.391732872E0
5.045831251E0,4.788403511E-1,5.698200226E0,6.473921299E0,8.637732971E0
5.050836047E0,1.915361360E-2,5.468356609E0,5.698200226E0,7.897643742E0
5.055871361E0,-4.692635238E-1,5.267243862E0,4.750096321E0,7.108268511E0
5.060906673E0,-9.576807022E-1,5.142745018E0,4.213795185E0,6.717220296E0
5.065911470E0,-1.417367458E0,4.960785866E0,3.572149038E0,6.275235109E0
5.070946782E0,-2.164358377E0,4.338293552E0,3.227383852E0,5.824194765E0
5.075982096E0,-2.442085743E0,4.309563160E0,2.987963676E0,5.784811521E0
5.081017408E0,-2.566584110E0,4.194641590E0,2.796427488E0,5.657064500E0
5.086022205E0,-2.576161146E0,4.089296341E0,2.595314741E0,5.485855396E0
5.091057517E0,-2.518700123E0,3.974374771E0,2.451662540E0,5.305671903E0
5.096092831E0,-2.231395960E0,3.897760391E0,2.413355350E0,5.098622171E0
5.101097626E0,-1.953668594E0,4.060565948E0,2.375048161E0,5.093708920E0
5.106132940E0,-1.398213744E0,4.453215122E0,2.231395960E0,5.173514717E0
5.111168252E0,-9.864110947E-1,4.673481941E0,2.260126352E0,5.284185030E0
5.116203566E0,-7.469909191E-1,4.826710701E0,2.308010340E0,5.402040666E0
5.121208361E0,-5.650315881E-1,4.903325081E0,2.403778553E0,5.489991701E0
5.126243675E0,-5.937620401E-1,4.970362663E0,2.432508945E0,5.565443211E0
5.131278987E0,-7.182605267E-1,4.797980309E0,2.662352324E0,5.533952757E0
5.136283783E0,-9.768342972E-1,4.663905144E0,2.767697096E0,5.510568360E0
5.141319096E0,-1.379060149E0,4.376600742E0,2.853888512E0,5.403806121E0
5.146354410E0,-1.924938202E0,3.974374771E0,2.748543501E0,5.201493370E0
5.151389722E0,-2.355894566E0,3.533841610E0,2.815581083E0,5.095662132E0
5.156394518E0,-2.796427488E0,3.093308687E0,3.150769472E0,5.226462819E0
5.161429831E0,-3.217807055E0,2.806004286E0,3.409343243E0,5.463658448E0
5.166465145E0,-3.620033026E0,2.422932148E0,4.194641590E0,6.047334733E0
5.171500457E0,-3.869029999E0,2.240972757E0,4.989516258E0,6.699748094E0
5.176505253E0,-3.916913986E0,2.355894566E0,5.305551052E0,7.002951260E0
5.181540566E0,-3.658340216E0,2.729389906E0,5.133168221E0,6.868947399E0
5.186575880E0,-3.093308687E0,3.227383852E0,4.922478676E0,6.649463247E0
5.191580676E0,-2.547430515E0,3.495534420E0,4.845864296E0,6.495426382E0
5.196615988E0,-1.886630893E0,3.811569214E0,5.046977043E0,6.599955551E0
5.201651301E0,-1.168370485E0,4.261679173E0,5.142745018E0,6.780473824E0
5.206686615E0,-4.022258818E-1,4.893748283E0,5.037400246E0,7.034625730E0
5.211691411E0,5.267243981E-1,5.679046631E0,5.353435040E0,7.822293522E0
5.216726724E0,1.513135433E0,6.426037312E0,6.512228489E0,9.273222431E0
5.221762036E0,2.068590164E0,6.607996464E0,8.724471092E0,1.113827089E1
5.226766832E0,2.633621931E0,6.071695328E0,1.158793640E1,1.334472625E1
5.231802146E0,2.873042107E0,4.855441093E0,1.513135433E1,1.614891833E1
5.236837459E0,3.284844637E0,3.256114244E0,1.906742287E1,1.962037459E1
5.241842255E0,3.581725836E0,1.819593310E0,2.289814568E1,2.324789787E1
5.246877567E0,4.290409565E0,8.427590132E-1,2.647029305E1,2.682898192E1
5.251912881E0,5.401319027E0,-1.532289088E-1,2.865380669E1,2.915884710E1
5.256948194E0,7.019799232E0,-5.171475410E-1,3.057874489E1,3.137841076E1
5.261952990E0,8.925583839E0,-4.405331016E-1,3.100012398E1,3.226248290E1
5.266988302E0,1.040998936E1,1.053448766E-1,2.969767761E1,3.146952544E1
5.272023616E0,1.156878281E1,9.864110947E-1,2.716940117E1,2.954633822E1
5.277028411E0,1.207635307E1,1.982398987E0,2.373132706E1,2.670101296E1
5.282063725E0,1.201889229E1,2.949656487E0,2.051351929E1,2.395743556E1
5.287099037E0,1.176031876E1,3.811569214E0,1.750640297E1,2.143145590E1
5.292103833E0,1.094629002E1,4.252102375E0,1.496854877E1,1.902522253E1
5.297139146E0,9.777919769E0,4.118026733E0,1.328303146E1,1.700014071E1
5.302174460E0,8.619126320E0,3.687070608E0,1.218169785E1,1.537132364E1
5.307209772E0,7.431602001E0,2.729389906E0,1.160709000E1,1.405001124E1
5.312214569E0,6.339846134E0,1.771709204E0,1.152089882E1,1.326890018E1
5.317249881E0,5.573701382E0,9.097966552E-1,1.135809326E1,1.268464267E1
5.322285195E0,5.085284233E0,3.256114423E-1,1.141555405E1,1.250124045E1
5.327289991E0,4.759673119E0,-1.819593310E-1,1.139640045E1,1.235174241E1
5.332325304E0,4.472368717E0,-4.501099288E-1,1.112824917E1,1.200177530E1
5.337360616E0,4.395754337E0,-7.182605267E-1,1.063983250E1,1.153449565E1
5.342395930E0,4.271255970E0,-7.565677166E-1,1.019929886E1,1.108339837E1
5.347400725E0,4.280832767E0,-9.097966552E-1,9.576807022E0,1.052941080E1
5.352436039E0,4.271255970E0,-1.043871999E0,8.906430244E0,9.932663088E0
5.357471351E0,4.596867085E0,-1.053448796E0,8.523358345E0,9.741076883E0
5.362476147E0,4.989516258E0,-9.002198577E-1,8.216899872E0,9.655211639E0
5.367511460E0,5.564124584E0,-6.512228847E-1,7.872135162E0,9.661991805E0
5.372546774E0,5.784391403E0,-5.746083856E-1,7.402871609E0,9.412325258E0
5.377551570E0,5.813121796E0,-4.022258818E-1,6.598419666E0,8.803028613E0
5.382586882E0,5.746084213E0,-4.213795066E-1,5.372588634E0,7.877801287E0
5.387622195E0,5.516240597E0,-4.213795066E-1,3.897760391E0,6.767496367E0
5.392657509E0,5.238513470E0,-3.160346150E-1,2.068590164E0,5.641007580E0
5.397662305E0,4.989516258E0,-2.873042040E-2,4.118026793E-1,5.006563629E0
5.402697617E0,4.912901878E0,1.628057212E-1,-1.398213744E0,5.110588248E0
5.407732930E0,4.979939461E0,5.937620401E-1,-3.409343243E0,6.064319561E0
5.412737726E0,5.008669853E0,9.193734527E-1,-5.142745018E0,7.237392318E0
5.417773040E0,4.941632271E0,1.043871999E0,-6.914454460E0,8.562656056E0
5.422808352E0,4.941632271E0,9.002198577E-1,-8.772355080E0,1.010862696E1
5.427813149E0,4.817133904E0,6.416460276E-1,-9.959878922E0,1.108222346E1
5.432848461E0,4.817133904E0,3.543418646E-1,-9.902418137E0,1.101763233E1
5.437883775E0,4.501099110E0,-2.394201756E-1,-9.500192642E0,1.051526868E1
5.442919087E0,4.271255970E0,-9.768342972E-1,-7.987056732E0,9.109934580E0
5.447923884E0,3.964797974E0,-1.944091797E0,-4.462791920E0,6.278186649E0
5.452959196E0,4.194641590E0,-2.461239338E0,-2.777273953E-1,4.871329352E0
5.457994510E0,4.797980309E0,-2.863465309E0,3.562572241E0,6.626610717E0
5.462999305E0,5.008669853E0,-3.179499865E0,7.211335659E0,9.338059492E0
5.468034619E0,5.209783077E0,-3.418920040E0,1.117613316E1,1.279596836E1
5.473069931E0,5.832275391E0,-3.572149038E0,1.481532001E1,1.631776309E1
5.478105245E0,6.493074894E0,-3.763684988E0,1.714248466E1,1.871336760E1
5.483110040E0,6.828263283E0,-3.983951569E0,1.933557320E1,2.088926615E1
5.488145354E0,7.153874874E0,-4.003105164E0,2.014002419E1,2.174450162E1
5.493180666E0,7.316680431E0,-3.897760391E0,1.922065163E1,2.093226690E1
5.498185462E0,7.019799232E0,-3.390189648E0,1.660618210E1,1.834492439E1
5.503220775E0,5.908889771E0,-2.442085743E0,1.298614979E1,1.447476588E1
5.508256089E0,4.386177540E0,-1.474828243E0,9.318233490E0,1.040399669E1
5.513260885E0,3.083731890E0,-4.309563041E-1,5.947196960E0,6.712993177E0
5.518296197E0,1.877054095E0,4.788403511E-1,3.667917013E0,4.148039944E0
5.523331510E0,9.289502501E-1,1.101332784E0,2.030282974E0,2.489564505E0
5.528366824E0,7.661445439E-2,1.379060149E0,1.216254473E0,1.840367249E0
5.533371620E0,-5.554547906E-1,1.331176162E0,1.561019540E0,2.125403962E0
5.538406932E0,-6.799532771E-1,1.216254473E0,2.758120298E0,3.090119574E0
5.543442245E0,-4.596867263E-1,9.193734527E-1,4.702212334E0,4.813248411E0
5.548447041E0,1.628057212E-1,7.469909191E-1,6.866570473E0,6.909000738E0
5.553482355E0,8.140285611E-1,8.331822157E-1,9.241618156E0,9.314737852E0
5.558517667E0,1.589749932E0,1.120486379E0,1.136767006E1,1.153285382E1
5.563552980E0,2.269703150E0,1.503558636E0,1.310107136E1,1.338096826E1
5.568557776E0,2.949656487E0,1.877054095E0,1.425028896E1,1.467291863E1
5.573593090E0,3.505111217E0,2.470816135E0,1.479616642E1,1.540510557E1
5.578628402E0,3.993528366E0,3.045424461E0,1.495897198E1,1.577953490E1
5.583633199E0,4.347870350E0,3.687070608E0,1.492066479E1,1.597262358E1
5.588668511E0,4.510675907E0,4.443638325E0,1.483447361E1,1.612928163E1
5.593703825E0,4.596867085E0,5.123591423E0,1.453759289E1,1.608489922E1
5.598739137E0,4.750096321E0,5.995080948E0,1.399171448E1,1.594592376E1
5.603743934E0,4.999093056E0,6.856993675E0,1.311064816E1,1.561724651E1
5.608779246E0,5.315127850E0,7.747636795E0,1.244027233E1,1.558963873E1
5.613814560E0,5.554547787E0,8.599972725E0,1.165497398E1,1.551292850E1
5.618819355E0,5.506663799E0,8.935160637E0,1.103248119E1,1.522747790E1
5.623854669E0,5.334281445E0,9.232041359E0,1.031422138E1,1.483469949E1
5.628889981E0,4.836287498E0,9.126696587E0,9.682151794E0,1.415734194E1
5.633925295E0,4.050989151E0,8.906430244E0,9.059659004E0,1.333463288E1
5.638930090E0,3.217807055E0,8.513781548E0,8.916007042E0,1.274103371E1
5.643965404E0,2.336740971E0,8.082824707E0,8.925583839E0,1.226615101E1
5.649000716E0,1.695094824E0,7.527369976E0,9.193734169E0,1.200247446E1
5.654005512E0,7.757213712E-1,7.029376030E0,9.844957352E0,1.212175962E1
5.659040825E0,8.619125932E-2,6.502651691E0,1.040998936E1,1.227435482E1
5.664076139E0,-6.703764796E-1,6.244078159E0,1.115697956E1,1.280297269E1
5.669111451E0,-1.618480325E0,6.205770969E0,1.162624359E1,1.327782407E1
5.674116247E0,-2.269703150E0,6.177040577E0,1.188481712E1,1.358514854E1
5.679151560E0,-2.777273893E0,6.339846134E0,1.159751320E1,1.350589544E1
5.684186874E0,-3.303998232E0,6.435614109E0,1.065898609E1,1.288206186E1
5.689222186E0,-3.600879431E0,6.732495308E0,9.615114212E0,1.227775415E1
5.694226982E0,-3.715801001E0,7.105990410E0,8.628703117E0,1.177950739E1
5.699262295E0,-3.428496838E0,7.603984833E0,7.699752808E0,1.135171217E1
5.704297609E0,-2.815581083E0,7.996633530E0,6.675034523E0,1.079026091E1
5.709302404E0,-2.193088770E0,8.207323074E0,6.157886982E0,1.049234781E1
5.714337717E0,-1.810016513E0,8.312667847E0,5.966350555E0,1.039105122E1
5.719373030E0,-1.561019540E0,8.082824707E0,5.908889771E0,1.013330230E1
5.724408344E0,-1.503558636E0,7.575253963E0,6.110002518E0,9.847704908E0
5.729413139E0,-1.608903527E0,7.010222435E0,6.378153324E0,9.613148754E0
5.734448452E0,-2.116474390E0,6.138733387E0,7.287950039E0,9.761031053E0
5.739483765E0,-2.892195702E0,5.181052685E0,8.647856712E0,1.048777997E1
5.744488561E0,-3.189076662E0,4.328716755E0,9.988609314E0,1.134373460E1
5.749523874E0,-3.380612850E0,3.572149038E0,1.123359394E1,1.226305120E1
5.754559187E0,-2.566584110E0,2.738966703E0,1.186566353E1,1.244521047E1
5.759563984E0,-2.499546528E0,2.001552582E0,1.330218506E1,1.368218085E1
5.764599296E0,-2.240972757E0,1.273715258E0,1.363737297E1,1.387884185E1
5.769634609E0,-1.589749932E0,8.714894056E-1,1.357033539E1,1.369090213E1
5.774669923E0,-1.139639974E0,7.565677166E-1,1.298614979E1,1.305799603E1
5.779674719E0,-7.661445141E-1,7.757213712E-1,1.199016190E1,1.203963053E1
5.784710031E0,-4.309563041E-1,9.768342972E-1,1.079306126E1,1.084574109E1
5.789745344E0,1.915361285E-1,1.379060149E0,9.576807022E0,9.677485506E0
5.794750140E0,7.565677166E-1,1.848323703E0,8.724471092E0,8.950144751E0
5.799785454E0,1.292868972E0,2.451662540E0,8.245630264E0,8.698998669E0
5.804820766E0,1.771709204E0,3.112462282E0,7.852981567E0,8.631088834E0
5.809825562E0,2.403778553E0,3.667917013E0,7.766790390E0,8.919349725E0
5.814860875E0,3.074155092E0,4.108449936E0,8.073247910E0,9.565935512E0
5.819896189E0,3.543418407E0,4.501099110E0,8.954314232E0,1.062993182E1
5.824900984E0,3.849876404E0,4.769249916E0,1.027591324E1,1.196501926E1
5.829936297E0,4.079719543E0,4.625597477E0,1.182735634E1,1.333891381E1
5.834971610E0,4.357447147E0,4.156333923E0,1.345541382E1,1.474145917E1
5.840006924E0,4.759673119E0,3.524264812E0,1.538035202E1,1.648120623E1
5.845011719E0,5.257667065E0,2.729389906E0,1.697010231E1,1.797434295E1
5.850047032E0,6.033388138E0,2.078166962E0,1.821508598E1,1.930051574E1
5.855082345E0,6.904877663E0,1.474828243E0,1.912488365E1,2.038660415E1
5.860087141E0,7.785943985E0,1.082179189E0,1.955583954E1,2.107659592E1
5.865122454E0,8.456320763E0,6.703764796E-1,1.929726601E1,2.107945068E1
5.870157768E0,8.667010307E0,3.256114423E-1,1.878011894E1,2.068612960E1
5.875162564E0,8.226476669E0,0.000000000E0,1.786074448E1,1.966420890E1
5.880197876E0,7.479485989E0,-2.585737705E-1,1.682645035E1,1.841572704E1
5.885233189E0,6.636727333E0,-5.267243981E-1,1.579215431E1,1.713813660E1
5.890237985E0,5.813121796E0,-8.619126081E-1,1.500685596E1,1.611648238E1
5.895273299E0,5.066130638E0,-1.312022567E0,1.473870564E1,1.564022144E1
5.900308611E0,4.290409565E0,-1.800439715E0,1.443224812E1,1.516373909E1
5.905343924E0,3.524264812E0,-2.068590164E0,1.451843929E1,1.508259219E1
5.910348720E0,2.978386879E0,-2.145204782E0,1.405875206E1,1.453001037E1
5.915384034E0,2.643198729E0,-2.336740971E0,1.377144814E1,1.421617535E1
5.920419346E0,2.346317768E0,-2.413355350E0,1.313937855E1,1.356365584E1
5.925424142E0,2.126051188E0,-2.604891539E0,1.243069553E1,1.287741220E1
5.930459455E0,2.097320795E0,-2.834734917E0,1.166455078E1,1.218590257E1
5.935494769E0,2.202665567E0,-2.825158119E0,1.052491093E1,1.111786868E1
5.940530081E0,2.700659513E0,-2.135627985E0,9.730035782E0,1.032124339E1
5.945534877E0,2.729389906E0,-2.403778553E0,8.082824707E0,8.863395277E0
5.950570190E0,3.217807055E0,-2.480392933E0,6.521805286E0,7.683786536E0
5.955605504E0,3.600879431E0,-2.451662540E0,4.912901878E0,6.566093721E0
5.960610299E0,3.811569214E0,-2.116474390E0,3.284844637E0,5.458729523E0
5.965645613E0,3.533841610E0,-1.915361404E0,1.924938202E0,4.456684072E0
5.970680925E0,2.671929121E0,-1.857900500E0,1.091755986E0,3.432627365E0
5.975685721E0,2.595314741E0,-1.877054095E0,-1.244984865E-1,3.205384619E0
5.980721034E0,2.758120298E0,-1.867477298E0,-1.063025594E0,3.496387057E0
5.985756348E0,2.834734917E0,-2.039859772E0,-1.685518026E0,3.877850043E0
5.990761144E0,2.825158119E0,-2.164358377E0,-1.877054095E0,4.023592631E0
5.995796456E0,2.930502892E0,-2.135627985E0,-2.164358377E0,4.222937517E0
6.000801252E0,2.930502892E0,-2.039859772E0,-2.212242365E0,4.200344196E0
6.005836565E0,2.863465309E0,-2.106897593E0,-2.087743998E0,4.122757092E0
6.010871879E0,2.892195702E0,-2.011129379E0,-1.819593310E0,3.964890562E0
6.015907191E0,2.892195702E0,-2.164358377E0,-1.264138460E0,3.827177708E0
6.020911987E0,2.853888512E0,-2.442085743E0,-4.884171486E-1,3.787745203E0
6.025947300E0,2.815581083E0,-2.422932148E0,2.681505978E-1,3.724245128E0
6.030982613E0,2.920926094E0,-2.355894566E0,1.177947283E0,3.933142287E0
6.035987409E0,3.026270866E0,-2.250549555E0,1.972822189E0,4.256209117E0
6.041022722E0,2.930502892E0,-2.145204782E0,2.786850691E0,4.577803789E0
6.046058035E0,2.987963676E0,-1.896207690E0,3.179499865E0,4.757388982E0
6.051062831E0,3.256114244E0,-1.484405041E0,3.131615877E0,4.755287194E0
6.056098144E0,4.003105164E0,-9.576807022E-1,2.767697096E0,4.960055493E0
6.061133458E0,4.817133904E0,-4.501099288E-1,1.829170108E0,5.172353553E0
6.066168770E0,5.353435040E0,1.149216816E-1,9.672574997E-1,5.441328954E0
6.071173566E0,5.669469833E0,7.661445141E-1,-1.340752989E-1,5.722573005E0
6.076208879E0,6.071695328E0,1.675941229E0,-9.289502501E-1,6.366883988E0
6.081244193E0,6.684611320E0,2.652775526E0,-1.589749932E0,7.365361590E0
6.086248988E0,6.933608055E0,3.696647406E0,-1.493981838E0,7.998256337E0
6.091284301E0,6.531382084E0,4.156333923E0,-7.948749661E-1,7.782408998E0
6.096319614E0,6.052541733E0,3.955221176E0,5.554547906E-1,7.251590584E0
6.101354928E0,5.736507416E0,3.169923067E0,2.528276920E0,7.024821262E0
6.106359723E0,5.468356609E0,2.221819162E0,5.075707436E0,7.784742152E0
6.111395036E0,5.161899090E0,1.110909581E0,8.169015884E0,9.726877342E0
6.116430349E0,4.836287498E0,0.000000000E0,1.158793640E1,1.255666942E1
6.121435145E0,4.692635536E0,-1.043871999E0,1.522712326E1,1.596796104E1
6.126470458E0,4.568136692E0,-1.886630893E0,1.897165489E1,1.960487027E1
6.131505771E0,4.443638325E0,-2.317587137E0,2.245761108E1,2.301002884E1
6.136510567E0,4.079719543E0,-2.336740971E0,2.536896133E1,2.580094318E1
6.141545880E0,3.849876404E0,-1.886630893E0,2.722686195E1,2.756234635E1
6.146581193E0,3.696647406E0,-1.063025594E0,2.789723778E1,2.816116299E1
6.151585989E0,3.888183594E0,-1.053448766E-1,2.698744202E1,2.726629964E1
6.156621303E0,4.319139957E0,9.768342972E-1,2.491885185E1,2.530925429E1
6.161656615E0,4.865017891E0,1.915361404E0,2.237141991E1,2.297427773E1
6.166691928E0,5.171475887E0,2.576161146E0,1.976652908E1,2.059360195E1
6.171696724E0,5.477933407E0,3.524264812E0,1.833000755E1,1.945295283E1
6.176732038E0,5.382165432E0,4.146757126E0,1.660618210E1,1.794236839E1
6.181767350E0,4.874594688E0,4.654327869E0,1.545696640E1,1.686245094E1
6.186772146E0,4.127603531E0,4.683058739E0,1.467166805E1,1.594446592E1
6.191807459E0,3.150769472E0,4.730942726E0,1.420240402E1,1.529762881E1
6.196842773E0,2.327163935E0,4.750096321E0,1.372356415E1,1.470766195E1
6.201878085E0,1.446097851E0,4.673481941E0,1.313937855E1,1.402055281E1
6.206882881E0,7.086837292E-1,4.750096321E0,1.273715305E1,1.361252055E1
6.211918194E0,2.585737705E-1,4.817133904E0,1.216254425E1,1.308430824E1
6.216953508E0,-3.830722719E-2,4.826710701E0,1.154962921E1,1.251768903E1
6.221958303E0,-1.819593310E-1,4.865017891E0,1.119528675E1,1.220802825E1
6.226993616E0,-2.011129409E-1,4.922478676E0,1.084094524E1,1.190786868E1
6.232028929E0,-1.915361285E-1,4.941632271E0,1.045787334E1,1.156821207E1
6.237064243E0,-1.915361360E-2,5.008669853E0,1.006522369E1,1.124259172E1
6.242069038E0,1.244984865E-1,5.066130638E0,9.710882187E0,1.095364836E1
6.247104351E0,3.639186621E-1,5.152322292E0,9.461885452E0,1.077989509E1
6.252139664E0,6.512228847E-1,5.161899090E0,9.021351814E0,1.041412896E1
6.257144460E0,7.757213712E-1,5.315127850E0,8.446743965E0,1.000998558E1
6.262179773E0,7.469909191E-1,5.516240597E0,7.814674377E0,9.594583961E0
6.267215086E0,7.278373241E-1,5.679046631E0,6.952761650E0,9.006787017E0
6.272250399E0,6.129156351E-1,5.928043365E0,6.042964935E0,8.487331084E0
6.277255195E0,4.788403511E-1,6.167463779E0,5.123591423E0,8.032315147E0
6.282290508E0,3.064578176E-1,6.330269337E0,4.204218388E0,7.605371688E0
6.287325821E0,9.576806426E-2,6.473921299E0,3.141192675E0,7.196382419E0
6.292330618E0,-4.022258818E-1,6.607996464E0,2.365471363E0,7.030139237E0
6.297365930E0,-1.053448796E0,6.607996464E0,1.541865945E0,6.866783980E0
6.302401243E0,-1.810016513E0,6.435614109E0,1.120486379E0,6.778552829E0
6.307406039E0,-2.499546528E0,6.062118530E0,9.864110947E-1,6.630989426E0
6.312441353E0,-3.141192675E0,5.573701382E0,1.139639974E0,6.498616605E0
6.317476665E0,-3.610456228E0,4.970362663E0,1.829170108E0,6.409817662E0
6.322511978E0,-4.060565948E0,4.328716755E0,2.863465309E0,6.589796518E0
6.327516774E0,-4.376600742E0,3.687070608E0,4.347870350E0,7.187009135E0
6.332552088E0,-4.357447147E0,3.055001259E0,5.975927353E0,8.002005128E0
6.337587400E0,-4.127603531E0,2.461239338E0,7.757213593E0,9.125194393E0
6.342592196E0,-3.706224203E0,1.877054095E0,9.682151794E0,1.053581954E1
6.347627509E0,-3.371036053E0,1.187524080E0,1.161666679E1,1.215405467E1
6.352662823E0,-2.834734917E0,5.937620401E-1,1.292868900E1,1.324912355E1
6.357698135E0,-2.403778553E0,-1.915361360E-2,1.411621284E1,1.431942678E1
6.362702931E0,-1.790862918E0,-1.819593310E-1,1.423113537E1,1.434452903E1
6.367738244E0,-1.149216771E0,-1.915361360E-2,1.373314095E1,1.378115475E1
6.372773557E0,-3.160346150E-1,7.278373241E-1,1.308191776E1,1.310596038E1
6.377778353E0,8.906430602E-1,1.972822189E0,1.263180828E1,1.281592185E1
6.382813666E0,2.700659513E0,3.342305660E0,1.241154194E1,1.313434209E1
6.387848979E0,4.807557106E0,4.721365929E0,1.283292103E1,1.449440456E1
6.392884292E0,6.943184853E0,5.698200226E0,1.387679291E1,1.653005394E1
6.397889088E0,9.021351814E0,6.378153324E0,1.482489681E1,1.848900197E1
6.402924401E0,1.094629002E1,6.646304131E0,1.610818863E1,2.057834698E1
6.407959714E0,1.252646351E1,6.607996464E0,1.736275101E1,2.240631669E1
6.412964510E0,1.389594650E1,6.253654957E0,1.886631012E1,2.425166359E1
6.417999823E0,1.476743603E1,5.899312973E0,2.018790817E1,2.569884621E1
6.423035136E0,1.524627686E1,5.468356609E0,2.122220421E1,2.669707537E1
6.428070449E0,1.513135433E1,5.027823448E0,2.151908493E1,2.678260459E1
6.433075245E0,1.454716969E1,4.529829502E0,2.132754898E1,2.621075822E1
6.438110558E0,1.330218506E1,3.888183594E0,2.069548035E1,2.490720791E1
6.443145871E0,1.191354752E1,3.150769472E0,1.996764183E1,2.346415741E1
6.448150667E0,1.031422138E1,2.231395960E0,1.935472679E1,2.204467600E1
6.453185980E0,8.418013573E0,1.244984865E0,1.831085396E1,2.019159014E1
6.458221293E0,6.636727333E0,3.447650373E-1,1.705629349E1,1.830524952E1
6.463256606E0,4.979939461E0,-4.692635238E-1,1.585919189E1,1.662931065E1
6.468261402E0,3.562572241E0,-1.043871999E0,1.472912884E1,1.518976057E1
6.473296715E0,2.183511972E0,-1.503558636E0,1.344583702E1,1.370470526E1
6.478332028E0,9.193734527E-1,-1.944091797E0,1.227746677E1,1.246438650E1
6.483336824E0,-1.915361285E-1,-2.355894566E0,1.120486355E1,1.145145809E1
6.488372137E0,-8.906430602E-1,-2.643198729E0,1.020887566E1,1.058304714E1
6.493407450E0,-1.388636947E0,-2.691082716E0,9.346963882E0,9.825272137E0
6.498412246E0,-1.551442742E0,-2.911349297E0,8.389283180E0,9.014599358E0
6.503447559E0,-1.781286120E0,-2.987963676E0,7.479485989E0,8.248855547E0
6.508482872E0,-1.810016513E0,-2.940079689E0,6.713341713E0,7.549118181E0
6.513518185E0,-1.637633920E0,-2.806004286E0,5.966350555E0,6.793588437E0
6.518522981E0,-1.417367458E0,-2.557007313E0,5.286397457E0,6.040961429E0
6.523558294E0,-1.005564690E0,-2.260126352E0,4.893748283E0,5.483439043E0
6.528593607E0,-3.447650373E-1,-2.116474390E0,4.472368717E0,4.959879910E0
6.533598403E0,2.489969730E-1,-1.896207690E0,4.242525578E0,4.653668056E0
6.538633716E0,1.120486379E0,-1.618480325E0,4.127603531E0,4.572972687E0
6.543669029E0,1.838746905E0,-1.465251446E0,3.840299606E0,4.502871645E0
6.548673825E0,2.528276920E0,-1.455674648E0,3.792415380E0,4.784724369E0
6.553709138E0,3.131615877E0,-1.570596337E0,3.677493811E0,5.079148707E0
6.558744451E0,3.418920040E0,-1.800439715E0,3.457227230E0,5.184883560E0
6.563749247E0,3.533841610E0,-2.087743998E0,3.418920040E0,5.341884102E0
6.568784560E0,3.505111217E0,-2.308010340E0,3.265691042E0,5.317654968E0
6.573819873E0,3.313575268E0,-2.547430515E0,3.016694069E0,5.154573347E0
6.578855186E0,2.978386879E0,-2.777273893E0,2.729389906E0,4.902408381E0
6.583859982E0,2.652775526E0,-3.016694069E0,2.470816135E0,4.716205410E0
6.588895295E0,2.250549555E0,-3.236960649E0,2.183511972E0,4.506729643E0
6.593930608E0,1.762132406E0,-3.466804028E0,1.800439715E0,4.285489931E0
6.598935404E0,1.254561663E0,-3.639186621E0,1.244984865E0,4.045688018E0
6.603970717E0,6.991068721E-1,-3.859453201E0,4.596867263E-1,3.949106395E0
6.609006030E0,3.830722719E-2,-4.022258759E0,-2.585737705E-1,4.030743524E0
6.614010826E0,-4.596867263E-1,-4.031835556E0,-1.024718285E0,4.185338385E0
6.619046139E0,-8.810662031E-1,-3.744531393E0,-1.561019540E0,4.151454566E0
6.624081452E0,-1.130063176E0,-3.284844637E0,-1.877054095E0,3.948490743E0
6.629086248E0,-1.321599364E0,-2.585737944E0,-1.896207690E0,3.468179522E0
6.634121561E0,-1.254561663E0,-2.059013367E0,-1.656787634E0,2.925475393E0
6.639156874E0,-8.236053586E-1,-1.446097851E0,-9.864110947E-1,1.934562387E0
6.644192187E0,-3.447650373E-1,-1.082179189E0,-1.628057212E-1,1.147379811E0
6.649196983E0,3.064578176E-1,-7.086837292E-1,9.959878922E-1,1.260214626E0
6.654232296E0,1.168370485E0,-3.256114423E-1,2.375048161E0,2.666826985E0
6.659267609E0,1.982398987E0,1.436520964E-1,3.993528366E0,4.460808276E0
6.664272405E0,3.074155092E0,6.703764796E-1,5.793968201E0,6.593170836E0
6.669307718E0,4.271255970E0,1.273715258E0,7.335834026E0,8.583731064E0
6.674343031E0,5.363011837E0,1.838746905E0,8.111555099E0,9.896474740E0
6.679378344E0,6.330269337E0,2.509123325E0,7.891288757E0,1.042307287E1
6.684383140E0,6.981492043E0,2.930502892E0,6.540958881E0,1.000565947E1
6.689418453E0,7.326257229E0,3.323152065E0,5.114014626E0,9.532603539E0
6.694453766E0,7.125144482E0,3.543418407E0,3.936067581E0,8.877844665E0
6.699458562E0,6.684611320E0,3.744531393E0,3.505111217E0,8.425636386E0
6.704493875E0,6.090848923E0,3.581725836E0,3.821146011E0,8.032954463E0
6.709529188E0,5.746084213E0,3.208230257E0,4.510675907E0,7.978497497E0
6.714564501E0,5.363011837E0,3.112462282E0,5.401319027E0,8.223354830E0
6.719569297E0,4.970362663E0,3.064578056E0,6.675034523E0,8.868609223E0
6.724604610E0,4.290409565E0,2.853888512E0,8.025363922E0,9.537230204E0
6.729639923E0,3.351882458E0,2.020706177E0,1.102290440E1,1.169712746E1
6.734644719E0,2.327163935E0,1.177947283E0,1.417367363E1,1.441167152E1
6.739680032E0,1.359906554E0,1.532289088E-1,1.677856636E1,1.683428389E1
6.744715345E0,6.895300746E-1,-8.810662031E-1,1.881842613E1,1.885165487E1
6.749750658E0,-9.576806799E-3,-1.637633920E0,2.023579216E1,2.030195116E1
6.754755454E0,-4.118026793E-1,-1.991975784E0,2.045605850E1,2.055694234E1
6.759790767E0,-7.374141216E-1,-1.972822189E0,1.960372353E1,1.971653578E1
6.764826080E0,-7.948749661E-1,-1.752555609E0,1.855027390E1,1.864982410E1
6.769861393E0,-5.075707436E-1,-1.321599364E0,1.733402061E1,1.739173722E1
6.774866189E0,3.160346150E-1,-5.171475410E-1,1.610818863E1,1.611958623E1
6.779901502E0,1.752555609E0,5.937620401E-1,1.489193439E1,1.500645576E1
6.784936815E0,3.476380825E0,1.704671621E0,1.367568016E1,1.421321064E1
6.789941610E0,5.171475887E0,2.930502892E0,1.272757626E1,1.404717792E1
6.794976924E0,6.464344501E0,3.849876404E0,1.177947235E1,1.397731258E1
6.800012237E0,7.278373241E0,4.481945515E0,1.136767006E1,1.422274500E1
6.805017033E0,7.460332394E0,4.893748283E0,1.163582039E1,1.466279809E1
6.810052346E0,7.211335659E0,5.228936672E0,1.239238834E1,1.526159984E1
6.815087659E0,6.378153324E0,4.989516258E0,1.270842266E1,1.506917778E1
6.820122972E0,5.506663799E0,5.104437828E0,1.351287460E1,1.545886192E1
6.825127768E0,4.558559895E0,4.903325081E0,1.365652657E1,1.520933210E1
6.830163081E0,3.687070608E0,4.951209068E0,1.342668343E1,1.477784791E1
6.835198394E0,2.940079689E0,4.769249916E0,1.282334423E1,1.399385474E1
6.840203190E0,2.336740971E0,4.548983097E0,1.164539719E1,1.271883962E1
6.845238503E0,1.752555609E0,4.156333923E0,9.931148529E0,1.090753290E1
6.850273816E0,1.149216771E0,3.782838583E0,8.360552788E0,9.248211170E0
6.855278612E0,6.129156351E-1,3.581725836E0,6.665457726E0,7.591623820E0
6.860313925E0,1.149216816E-1,3.600879431E0,5.219359875E0,6.342023113E0
6.865349238E0,-2.202665508E-1,3.667917013E0,4.175487995E0,5.562088867E0
6.870384551E0,-5.075707436E-1,3.830722809E0,3.361459255E0,5.121667075E0
6.875389347E0,-6.512228847E-1,3.926490784E0,2.806004286E0,4.869813258E0
6.880424660E0,-8.331822157E-1,4.070142746E0,2.585737944E0,4.893495202E0
6.885459973E0,-1.110909581E0,3.974374771E0,2.346317768E0,4.747102483E0
6.890464769E0,-1.312022567E0,3.734954596E0,2.231395960E0,4.544272987E0
6.895500082E0,-1.522712231E0,3.409343243E0,2.183511972E0,4.325505568E0
6.900535395E0,-1.733402014E0,3.007117271E0,2.308010340E0,4.168254857E0
6.905570708E0,-1.819593310E0,2.796427488E0,2.403778553E0,4.112064912E0
6.910575504E0,-1.838746905E0,2.595314741E0,2.499546528E0,4.045291291E0
6.915610817E0,-1.781286120E0,2.614468336E0,2.614468336E0,4.104128361E0
6.920646130E0,-1.618480325E0,2.671929121E0,3.035847664E0,4.356036596E0
6.925650926E0,-1.493981838E0,2.691082716E0,3.620033026E0,4.751688860E0
6.930686239E0,-1.283292055E0,2.796427488E0,4.290409565E0,5.279626827E0
6.935721552E0,-1.043871999E0,2.815581083E0,4.644751072E0,5.530902106E0
6.940726348E0,-8.906430602E-1,2.796427488E0,4.932055473E0,5.739200550E0
6.945761661E0,-8.140285611E-1,2.633621931E0,5.066130638E0,5.767519971E0
6.950796974E0,-1.024718285E0,2.547430515E0,5.382165432E0,6.042115071E0
6.955832287E0,-1.177947283E0,2.451662540E0,5.669469833E0,6.288171213E0
6.960837083E0,-1.331176162E0,2.336740971E0,6.090848923E0,6.658140051E0
6.965872396E0,-1.225831270E0,2.221819162E0,6.607996464E0,7.078471584E0
6.970907709E0,-6.416460276E-1,2.183511972E0,7.441178799E0,7.781425067E0
6.975912505E0,2.968810201E-1,2.087743998E0,8.226476669E0,8.492451456E0
6.980947818E0,1.407790542E0,2.145204782E0,9.557653427E0,9.896085933E0
6.985983131E0,2.480392933E0,2.260126352E0,1.076433086E1,1.127525340E1
6.991018444E0,3.533841610E0,2.537853718E0,1.172201157E1,1.250337127E1
6.996023240E0,4.357447147E0,2.882618904E0,1.246900272E1,1.351935155E1
7.001058553E0,4.797980309E0,3.007117271E0,1.303403378E1,1.421089039E1
7.006093866E0,4.893748283E0,3.026270866E0,1.329260826E1,1.448449247E1
7.011098662E0,4.596867085E0,2.796427488E0,1.368525696E1,1.470501451E1
7.016133975E0,4.204218388E0,2.710236311E0,1.462378407E1,1.545561042E1
7.021169288E0,4.242525578E0,2.557007313E0,1.614649582E1,1.688924619E1
7.026174084E0,4.606443882E0,2.432508945E0,1.817677879E1,1.890850899E1
7.031209397E0,5.458779812E0,2.212242365E0,2.002510262E1,2.087335690E1
7.036244710E0,6.598419666E0,1.800439715E0,2.170104408E1,2.275337425E1
7.041280023E0,7.939172745E0,1.369483352E0,2.279280090E1,2.417473312E1
7.046284819E0,9.174580574E0,9.576807022E-1,2.326206398E1,2.502426226E1
7.051320132E0,1.032379818E1,6.991068721E-1,2.298433685E1,2.520613615E1
7.056355444E0,1.106121159E1,7.086837292E-1,2.208411598E1,2.470952879E1
7.061360241E0,1.139640045E1,9.193734527E-1,2.074336433E1,2.368565715E1
7.066395554E0,1.134851646E1,1.177947283E0,1.871308136E1,2.191702078E1
7.071430867E0,1.091755962E1,1.647210717E0,1.641464615E1,1.978249275E1
7.076435663E0,1.057279491E1,2.001552582E0,1.437478733E1,1.795618879E1
7.081470976E0,1.050575733E1,2.662352324E0,1.292868900E1,1.687038993E1
7.086506289E0,1.061110210E1,3.466804028E0,1.190397072E1,1.631927501E1
7.091541602E0,1.028549004E1,3.763684988E0,1.123359394E1,1.568917661E1
7.096546398E0,9.538499832E0,3.639186621E0,1.052491093E1,1.466289222E1
7.101581711E0,8.226476669E0,2.978386879E0,1.023760605E1,1.346678449E1
7.106617024E0,7.067683220E0,2.327163935E0,1.020887566E1,1.263285321E1
7.111621819E0,5.343858242E0,1.398213744E0,1.031422138E1,1.170021305E1
7.116657133E0,3.380612850E0,3.351882398E-1,1.042914295E1,1.096849657E1
7.121692446E0,1.608903527E0,-5.937620401E-1,1.018014526E1,1.032358860E1
7.126697242E0,-1.915361360E-2,-1.340752959E0,9.768342972E0,9.859944715E0
7.131732554E0,-1.063025594E0,-2.030282974E0,9.155426979E0,9.437897835E0
7.136767868E0,-1.733402014E0,-2.537853718E0,8.236053467E0,8.790788403E0
7.141803181E0,-2.327163935E0,-2.892195702E0,7.776367188E0,8.616981756E0
7.146807977E0,-2.442085743E0,-3.189076662E0,7.527369976E0,8.532015676E0
7.151843289E0,-2.078166962E0,-3.591302633E0,7.096413612E0,8.220420834E0
7.156878603E0,-1.628057122E0,-3.945644379E0,6.933608055E0,8.142088198E0
7.161883399E0,-1.091755986E0,-4.050989151E0,6.684611320E0,7.892177947E0
7.166918712E0,-6.799532771E-1,-4.070142746E0,7.048529625E0,8.167629295E0
7.171954024E0,-2.394201756E-1,-3.897760391E0,6.904877663E0,7.932666237E0
7.176989338E0,-3.830722719E-2,-3.715801001E0,6.876147270E0,7.816012142E0
7.181994134E0,4.788403213E-2,-3.371036053E0,6.358999729E0,7.197433883E0
7.187029447E0,1.053448766E-1,-3.074155092E0,5.870582581E0,6.627613968E0
7.192064759E0,7.661445439E-2,-2.940079689E0,5.181052685E0,5.957620773E0
7.197069556E0,7.661445439E-2,-3.131615877E0,4.673481941E0,5.626217311E0
7.202104869E0,-4.788403213E-2,-3.303998232E0,3.457227230E0,4.782375698E0
7.207140182E0,-1.149216816E-1,-3.581725836E0,2.940079689E0,4.635303176E0
7.212175494E0,-1.915361360E-2,-3.476380825E0,1.752555609E0,3.893204549E0
7.217180291E0,1.628057212E-1,-3.256114244E0,1.436521053E0,3.562636441E0
7.222215604E0,6.607996821E-1,-3.102885485E0,1.235408068E0,3.404524584E0
7.227250917E0,1.350329757E0,-3.265691042E0,5.458779931E-1,3.575767221E0
7.232255713E0,2.126051188E0,-3.227383852E0,4.788403213E-2,3.865021741E0
7.237291026E0,3.064578056E0,-3.246537447E0,-4.309563041E-1,4.485238834E0
7.242326339E0,3.849876404E0,-3.236960649E0,-1.187524080E0,5.168140479E0
7.247361652E0,4.577713490E0,-3.131615877E0,-2.221819162E0,5.974860600E0
7.252366448E0,5.410895824E0,-2.920926094E0,-3.179499865E0,6.922342252E0
7.257401761E0,6.052541733E0,-2.595314741E0,-4.568136692E0,8.014785890E0
7.262437074E0,6.358999729E0,-1.905784607E0,-5.832275391E0,8.836533752E0
7.267441869E0,6.272808552E0,-1.292868972E0,-7.038952827E0,9.516643012E0
7.272477183E0,5.822698593E0,-7.278373241E-1,-8.111555099E0,1.001153795E1
7.277512496E0,4.932055473E0,-2.873041928E-1,-8.542511940E0,9.868243265E0
7.282517292E0,4.232948780E0,4.788403213E-2,-8.111555099E0,9.149725372E0
7.287552604E0,4.213795185E0,2.873041928E-1,-6.722918510E0,7.939536942E0
7.292587918E0,5.276820660E0,9.097966552E-1,-4.108449936E0,6.749216777E0
7.297623231E0,6.818686485E0,1.580173135E0,-6.799532771E-1,7.032337377E0
7.302628027E0,9.519346237E0,2.729389906E0,2.643198729E0,1.024958641E1
7.307663339E0,1.195185471E1,3.677493811E0,7.077260017E0,1.436866038E1
7.312698653E0,1.477701283E1,4.616020679E0,1.194227791E1,1.955212921E1
7.317703449E0,1.772666931E1,5.334281445E0,1.659660530E1,2.486235449E1
7.322738762E0,2.052309608E1,6.014234543E0,2.041775131E1,2.956777061E1
7.327774074E0,2.277364731E1,6.234501362E0,2.288856888E1,3.288456483E1
7.332778871E0,2.428678131E1,6.358999729E0,2.298433685E1,3.403769035E1
7.337814184E0,2.529234695E1,6.387730122E0,2.149993134E1,3.380462924E1
7.342849497E0,2.533065414E1,6.215347767E0,1.895250130E1,3.224081098E1
7.347884810E0,2.442085648E1,6.157886982E0,1.571553993E1,2.968629311E1
7.352889606E0,2.306095123E1,6.387730122E0,1.206677628E1,2.679958316E1
7.357924919E0,2.140416336E1,6.550535679E0,9.069235802E0,2.415157893E1
7.362960232E0,1.968991470E1,6.780379295E0,6.330269337E0,2.176553685E1
7.367965028E0,1.793735886E1,6.914454460E0,4.060565948E0,1.964807164E1
7.373000341E0,1.622311020E1,6.828263283E0,1.886630893E0,1.770236877E1
7.378035654E0,1.468124485E1,6.454767704E0,-2.873042040E-2,1.603757469E1
7.383070967E0,1.307234097E1,5.995080948E0,-1.771709204E0,1.449020522E1
7.388075763E0,1.170285797E1,5.717353821E0,-2.710236311E0,1.330377391E1
7.393111076E0,1.043871975E1,5.516240597E0,-2.949656487E0,1.216948042E1
7.398146388E0,9.624691010E0,5.209783077E0,-3.160346270E0,1.139141366E1
7.403151184E0,9.040505409E0,5.037400246E0,-2.767697096E0,1.071290280E1
7.408186498E0,9.212887764E0,5.200206280E0,-2.231395960E0,1.081196440E1
7.413221811E0,9.653421402E0,5.401319027E0,-1.503558636E0,1.116348873E1
7.418257123E0,1.004607010E1,5.640739441E0,-9.864110947E-1,1.156349743E1
7.423261919E0,1.042914295E1,5.726930618E0,-5.267243981E-1,1.190975212E1
7.428297233E0,1.065898609E1,5.813121796E0,-3.447650373E-1,1.214599656E1
7.433332546E0,1.049618053E1,5.784391403E0,0.000000000E0,1.198453127E1
7.438337342E0,1.006522369E1,5.650316238E0,3.160346150E-1,1.154706367E1
7.443372654E0,9.442731857E0,5.343858242E0,2.394201756E-1,1.085261848E1
7.448407968E0,8.743624687E0,5.008669853E0,-7.661445439E-2,1.007688524E1
7.453443281E0,7.852981567E0,4.654327869E0,-1.915361285E-1,9.130650223E0
7.458448077E0,6.952761650E0,4.405331135E0,-5.650315881E-1,8.250278642E0
7.463483390E0,5.937620163E0,4.108449936E0,-1.015141487E0,7.291447477E0
7.468518703E0,4.999093056E0,3.763684988E0,-1.513135433E0,6.437843964E0
7.473523498E0,3.869029999E0,3.399766445E0,-1.915361404E0,5.495126416E0
7.478558812E0,2.834734917E0,2.987963676E0,-2.212242365E0,4.675218205E0
7.483594125E0,2.145204782E0,2.671929121E0,-2.145204782E0,4.042649174E0
7.488629438E0,1.302445769E0,2.413355350E0,-2.145204782E0,3.481745624E0
7.493634233E0,6.512228847E-1,2.183511972E0,-2.039859772E0,3.058241924E0
7.498669547E0,2.585737705E-1,1.982398987E0,-1.953668594E0,2.795279434E0
7.503704860E0,-1.532289088E-1,1.723825216E0,-1.733402014E0,2.449435653E0
7.508709656E0,-3.543418646E-1,1.675941229E0,-1.446097851E0,2.241770763E0
7.513744968E0,-5.458779931E-1,1.551442742E0,-9.864110947E-1,1.917801922E0
7.518780282E0,-5.841852427E-1,1.474828243E0,-5.171475410E-1,1.668482042E0
7.523785078E0,-6.607996821E-1,1.446097851E0,-1.244984865E-1,1.594789982E0
7.528820391E0,-6.224924326E-1,1.446097851E0,2.777273953E-1,1.598695821E0
7.533855703E0,-4.501099288E-1,1.647210717E0,9.097966552E-1,1.934846777E0
7.538891017E0,6.703764945E-2,1.752555609E0,1.647210717E0,2.406085692E0
7.543895813E0,5.171475410E-1,2.020706177E0,2.442085743E0,3.211616074E0
7.548931126E0,7.469909191E-1,2.202665567E0,3.409343243E0,4.127148214E0
7.553966438E0,9.959878922E-1,2.317587137E0,4.070142746E0,4.788451106E0
7.558971235E0,1.101332784E0,2.700659513E0,4.625597477E0,5.468331348E0
7.564006548E0,1.455674648E0,3.083731890E0,4.941632271E0,6.004008707E0
7.569041861E0,2.087743998E0,3.600879431E0,5.075707436E0,6.564130837E0
7.574046657E0,2.643198729E0,4.003105164E0,4.826710701E0,6.805033921E0
7.579081970E0,2.882618904E0,4.204218388E0,4.309563160E0,6.675123866E0
7.584117283E0,3.208230257E0,4.481945515E0,3.514688015E0,6.537094830E0
7.589152596E0,3.447650433E0,4.740519524E0,2.844311714E0,6.515284183E0
7.594157392E0,3.533841610E0,5.027823448E0,2.183511972E0,6.521868573E0
7.599192705E0,3.620033026E0,5.363011837E0,1.446097851E0,6.630062901E0
7.604228018E0,3.533841610E0,5.726930618E0,9.097966552E-1,6.790692217E0
7.609232813E0,3.610456228E0,5.995080948E0,4.788403511E-1,7.014675889E0
7.614268127E0,3.447650433E0,6.301538944E0,1.628057212E-1,7.184858542E0
7.619303440E0,3.457227230E0,6.617573261E0,1.149216816E-1,7.467121466E0
7.624338753E0,3.581725836E0,6.636727333E0,4.405331016E-1,7.554401305E0
7.629343548E0,3.648763418E0,6.722918510E0,1.312022567E0,7.760960701E0
7.634378862E0,3.600879431E0,6.531382084E0,2.920926094E0,8.009812348E0
7.639414175E0,3.916913986E0,6.416460514E0,4.912901878E0,8.980522567E0
7.644418971E0,4.874594688E0,6.483498096E0,7.268796444E0,1.089186957E1
7.649454283E0,6.186617374E0,6.789956093E0,9.385271072E0,1.313244270E1
7.654489597E0,7.958326340E0,7.364564419E0,1.146343803E1,1.577916914E1
7.659524910E0,9.787496567E0,7.929595947E0,1.347456741E1,1.844552921E1
7.664529706E0,1.158793640E1,8.188169479E0,1.502600956E1,2.066657574E1
7.669565018E0,1.314895535E1,8.245630264E0,1.605072784E1,2.232736683E1
7.674600332E0,1.405875206E1,7.977479935E0,1.639549255E1,2.302391955E1
7.679605128E0,1.496854877E1,7.718906403E0,1.611776543E1,2.331139916E1
7.684640441E0,1.530373764E1,7.268796444E0,1.521754646E1,2.277308736E1
7.689675753E0,1.529416084E1,6.924031258E0,1.387679291E1,2.178116035E1
7.694680550E0,1.508347034E1,6.952761650E0,1.231577396E1,2.067680489E1
7.699715863E0,1.489193439E1,7.029376030E0,1.066856289E1,1.962141869E1
7.704751176E0,1.459505367E1,7.115567684E0,8.925583839E0,1.852870589E1
7.709786488E0,1.443224812E1,7.383718014E0,7.278373241E0,1.777030654E1
7.714791285E0,1.444182491E1,7.690176010E0,5.851428986E0,1.737654554E1
7.719826598E0,1.441309452E1,8.149862289E0,4.874594688E0,1.726033668E1
7.724861911E0,1.424071217E1,8.485051155E0,4.156333923E0,1.709002890E1
7.729866707E0,1.412578964E1,8.762778282E0,3.878606796E0,1.706949932E1
7.734902020E0,1.405875206E1,8.916007042E0,4.079719543E0,1.714023928E1
7.739937332E0,1.415452003E1,9.059659004E0,4.376600742E0,1.736613062E1
7.744942128E0,1.428859615E1,8.992621422E0,4.932055473E0,1.758853011E1
7.749977442E0,1.446097851E1,8.724471092E0,5.621585369E0,1.779995835E1
7.755012755E0,1.454716969E1,8.188169479E0,6.215347767E0,1.781282721E1
7.760048067E0,1.471955204E1,7.785943985E0,6.876147270E0,1.801575803E1
7.765052863E0,1.476743603E1,7.412448406E0,7.575253963E0,1.817707432E1
7.770088177E0,1.469082165E1,6.962338448E0,8.073247910E0,1.815135612E1
7.775123490E0,1.458547688E1,6.569689274E0,8.437167168E0,1.808542901E1
7.780128286E0,1.440351772E1,6.177040577E0,8.724471092E0,1.793693254E1
7.785163598E0,1.413536644E1,5.803544998E0,8.935160637E0,1.770103993E1
7.790198912E0,1.395340729E1,5.410895824E0,9.040505409E0,1.748445328E1
7.795234225E0,1.388636971E1,5.324704647E0,9.040505409E0,1.740443855E1
7.800239021E0,1.406832886E1,5.257667065E0,9.222464561E0,1.762426714E1
7.805274333E0,1.445140171E1,5.382165432E0,9.519346237E0,1.812260105E1
7.810309647E0,1.474828243E1,5.410895824E0,9.586383820E0,1.840348834E1
7.815314442E0,1.477701283E1,5.420472622E0,9.586383820E0,1.842933494E1
7.820349756E0,1.463336086E1,5.228936672E0,9.318233490E0,1.811923023E1
7.825385068E0,1.425028896E1,5.046977043E0,8.954314232E0,1.757049960E1
7.830389865E0,1.358948898E1,4.865017891E0,8.322244644E0,1.666140348E1
7.835425177E0,1.280419064E1,4.520252705E0,7.929595947E0,1.572445466E1
7.840460491E0,1.202846909E1,4.242525578E0,7.364564419E0,1.472820087E1
7.845495803E0,1.145386124E1,3.849876404E0,7.086836815E0,1.400841681E1
7.850500600E0,1.107078838E1,3.620033026E0,6.675034523E0,1.342471901E1
7.855535912E0,1.071644688E1,3.265691042E0,6.617573261E0,1.301150443E1
7.860571226E0,1.051533413E1,2.930502892E0,6.493074894E0,1.270118580E1
7.865576022E0,1.018972206E1,2.595314741E0,6.454767704E0,1.233815709E1
7.870611335E0,9.921571732E0,2.317587137E0,6.464344501E0,1.206633936E1
7.875646647E0,9.672574997E0,1.944091797E0,6.598419666E0,1.186917613E1
7.880651443E0,9.461885452E0,1.637633920E0,6.560112476E0,1.162945385E1
7.885686757E0,9.394847870E0,1.379060149E0,6.435614109E0,1.147092422E1
7.890722070E0,9.126696587E0,1.082179189E0,6.349422932E0,1.117062549E1
7.895757382E0,8.983044624E0,8.140285611E-1,5.966350555E0,1.081457684E1
7.900762178E0,8.925583839E0,5.267243981E-1,5.870582581E0,1.069613132E1
7.905797492E0,8.810662270E0,2.968810201E-1,5.851428986E0,1.058088508E1
7.910832805E0,8.609549522E0,3.830722719E-2,5.679046631E0,1.031394110E1
7.915837601E0,8.322244644E0,-1.340752989E-1,5.736507416E0,1.010867199E1
7.920872913E0,8.101978302E0,-1.723825186E-1,5.755661011E0,9.939788821E0
7.925908227E0,7.805097580E0,-2.298433632E-1,5.717353821E0,9.677836066E0
7.930913022E0,7.680599213E0,-1.244984865E-1,5.765237808E0,9.604429766E0
7.935948336E0,7.517793179E0,-5.746084079E-2,5.870582581E0,9.538566761E0
7.940983648E0,7.441178799E0,-5.746084079E-2,5.880159378E0,9.484235234E0
7.946018962E0,7.287950039E0,0.000000000E0,6.004657745E0,9.442993721E0
7.951023757E0,7.268796444E0,-5.746084079E-2,5.995080948E0,9.422297971E0
7.956059071E0,7.173028469E0,-9.576806426E-2,5.956773758E0,9.324412182E0
7.961094383E0,7.115567684E0,-1.340752989E-1,5.870582581E0,9.225671764E0
7.966099180E0,6.895300865E0,-1.053448766E-1,5.640739441E0,8.909220673E0
7.971134492E0,6.904877663E0,-1.053448766E-1,5.535394192E0,8.850368463E0
7.976169806E0,6.856993675E0,-1.244984865E-1,5.382165432E0,8.717887753E0
7.981174602E0,6.847416878E0,-1.532289088E-1,5.334281445E0,8.681310703E0
7.986209915E0,6.742072105E0,-3.351882398E-1,5.200206280E0,8.521152081E0
7.991245227E0,6.540958881E0,-3.926490843E-1,5.066130638E0,8.282752926E0
7.996280541E0,6.349422932E0,-4.405331016E-1,4.730942726E0,7.930388393E0
8.001285337E0,6.062118530E0,-2.873041928E-1,4.232948780E0,7.399302680E0
8.006320650E0,5.755661011E0,-1.723825186E-1,3.706224203E0,6.847879033E0
8.011355962E0,5.631162167E0,-8.619125932E-2,3.294421434E0,6.524617143E0
8.016391276E0,5.468356609E0,-2.873042040E-2,2.978386879E0,6.226920414E0
8.021396072E0,5.439626217E0,1.628057212E-1,2.710236311E0,6.079590442E0
8.026431385E0,5.497087002E0,3.064578176E-1,2.269703150E0,5.955118327E0
8.031466697E0,5.382165432E0,4.405331016E-1,1.944091797E0,5.739448324E0
8.036471493E0,5.181052685E0,4.692635238E-1,1.522712231E0,5.420532051E0
8.041506807E0,5.037400246E0,4.692635238E-1,1.110909581E0,5.179742232E0
8.046542120E0,4.836287498E0,4.118026793E-1,7.757213712E-1,4.915384203E0
8.051546916E0,4.845864296E0,3.160346150E-1,5.746083856E-1,4.890036140E0
8.056582228E0,4.596867085E0,2.489969730E-1,1.340752989E-1,4.605557802E0
8.061617542E0,4.357447147E0,2.202665508E-1,-5.267243981E-1,4.394690158E0
8.066652855E0,4.089296341E0,6.703764945E-2,-9.864110947E-1,4.207118427E0
8.071657651E0,3.840299606E0,-2.298433632E-1,-1.407790542E0,4.096657570E0
8.076692963E0,3.600879431E0,-4.884171486E-1,-1.762132406E0,4.038563433E0
8.081728276E0,3.332728863E0,-7.852981687E-1,-2.240972757E0,4.092155152E0
8.086763590E0,3.035847664E0,-1.120486379E0,-2.710236311E0,4.221047456E0
8.091768386E0,2.671929121E0,-1.292868972E0,-3.294421434E0,4.434402778E0
8.096803699E0,2.288856745E0,-1.493981838E0,-3.667917013E0,4.574326415E0
8.101839011E0,2.030282974E0,-1.599326730E0,-3.907337189E0,4.684781622E0
8.106874325E0,1.771709204E0,-1.838746905E0,-4.108449936E0,4.837282766E0
8.111909637E0,1.848323703E0,-1.972822189E0,-4.252102375E0,5.038720325E0
8.116914434E0,1.905784607E0,-2.078166962E0,-4.252102375E0,5.102074823E0
8.121949746E0,2.250549555E0,-2.126051188E0,-4.213795185E0,5.228875291E0
8.126985060E0,2.748543501E0,-2.011129379E0,-4.252102375E0,5.447890175E0
8.132020372E0,3.418920040E0,-1.810016513E0,-4.395754337E0,5.855581116E0
8.137025169E0,4.156333923E0,-1.848323703E0,-4.730942726E0,6.563019981E0
8.142060481E0,4.807557106E0,-1.896207690E0,-5.190629482E0,7.324673601E0
8.147095795E0,5.114014626E0,-2.001552582E0,-5.516240597E0,7.783846649E0
8.152131107E0,5.372588634E0,-2.145204782E0,-6.042964935E0,8.365646263E0
8.157166421E0,5.640739441E0,-2.442085743E0,-6.598419666E0,9.017808287E0
8.162171216E0,5.822698593E0,-2.930502892E0,-7.240066051E0,9.742187769E0
8.167206530E0,5.995080948E0,-3.505111217E0,-7.584830761E0,1.028379589E1
8.172241842E0,5.966350555E0,-4.194641590E0,-7.785943985E0,1.066833074E1
8.177277156E0,5.688623428E0,-4.759673119E0,-7.556100368E0,1.058818103E1
8.182281951E0,5.363011837E0,-5.209783077E0,-6.885724068E0,1.016449367E1
8.187317265E0,5.209783077E0,-5.525817394E0,-5.899312973E0,9.616568574E0
8.192352577E0,5.554547787E0,-5.640739441E0,-4.788403511E0,9.252013334E0
8.197387891E0,6.320692539E0,-5.391742229E0,-3.189076662E0,8.899002663E0
8.202423204E0,7.278373241E0,-5.018246651E0,-1.216254473E0,8.923944836E0
8.207428000E0,8.274360657E0,-4.491522312E0,5.937620401E-1,9.433523749E0
8.212463312E0,9.126696587E0,-3.859453201E0,2.308010340E0,1.017442290E1
8.217498626E0,1.018972206E1,-3.256114244E0,4.146757126E0,1.147293817E1
8.222533939E0,1.170285797E1,-2.480392933E0,5.621585369E0,1.321784611E1
8.227538735E0,1.372356415E1,-1.877054095E0,7.038952827E0,1.553725851E1
8.232574047E0,1.560061836E1,-1.340752959E0,8.456320763E0,1.779568129E1
8.237609361E0,1.751597977E1,-9.864110947E-1,9.222464561E0,1.982010108E1
8.242644674E0,1.910573006E1,-6.703764796E-1,9.605537415E0,2.139496844E1
8.247679986E0,2.016875458E1,-4.118026793E-1,9.777919769E0,2.241775987E1
8.252684782E0,2.107855225E1,-1.340752989E-1,9.289502144E0,2.303515121E1
8.257720096E0,2.142331696E1,1.628057212E-1,8.389283180E0,2.300793531E1
8.262755409E0,2.175850487E1,4.692635238E-1,7.546523571E0,2.303481626E1
8.267790721E0,2.186384964E1,8.331822157E-1,6.416460514E0,2.280116399E1
8.272826035E0,2.175850487E1,1.187524080E0,5.382165432E0,2.244572236E1
8.277830831E0,2.155739212E1,1.484405041E0,4.501099110E0,2.207225649E1
8.282866144E0,2.120305061E1,1.752555609E0,3.610456228E0,2.157953198E1
8.287901456E0,2.085828590E1,2.145204782E0,2.997540474E0,2.118148350E1
8.292936770E0,2.050394249E1,2.509123325E0,2.671929121E0,2.082898372E1
8.297941566E0,2.021663857E1,2.834734917E0,2.738966703E0,2.059733321E1
8.302976879E0,1.991975784E1,3.112462282E0,2.729389906E0,2.034536171E1
8.308012191E0,1.957499313E1,3.217807055E0,2.624045134E0,2.001050352E1
8.313047505E0,1.909615326E1,3.342305660E0,2.748543501E0,1.958031072E1
8.318082818E0,1.846408272E1,3.438073635E0,2.882618904E0,1.900137344E1
8.323087614E0,1.783201408E1,3.639186621E0,3.045424461E0,1.845261542E1
8.328122926E0,1.714248466E1,3.792415380E0,3.093308687E0,1.782738774E1
8.333158240E0,1.640506935E1,3.897760391E0,2.911349297E0,1.711124751E1
8.338193553E0,1.567723274E1,4.003105164E0,2.940079689E0,1.644519827E1
8.343198349E0,1.504516315E1,4.003105164E0,3.102885485E0,1.587481287E1
8.348233661E0,1.453759289E1,4.127603531E0,3.438073635E0,1.549835695E1
8.353268975E0,1.408748245E1,4.118026733E0,3.811569214E0,1.516388360E1
8.358304288E0,1.374271774E1,4.252102375E0,4.587290287E0,1.509920189E1
8.363309084E0,1.368525696E1,4.414907932E0,5.248090267E0,1.530751846E1
8.368344396E0,1.350329781E1,4.616020679E0,5.870582581E0,1.543082753E1
8.373379710E0,1.338837624E1,5.066130638E0,6.435614109E0,1.569494909E1
8.378415023E0,1.326387787E1,5.458779812E0,6.722918510E0,1.584065549E1
8.383419819E0,1.297657299E1,5.822698593E0,7.019799232E0,1.586104810E1
8.388455131E0,1.269884586E1,6.033388138E0,6.789956093E0,1.561300619E1
8.393490445E0,1.238281155E1,6.119579315E0,6.435614109E0,1.523812330E1
8.398525758E0,1.204762268E1,6.042964935E0,6.167463779E0,1.482228886E1
8.403530554E0,1.171243477E1,6.119579315E0,5.707777023E0,1.439475939E1
8.408565866E0,1.119528675E1,6.110002518E0,5.449203014E0,1.386940481E1
8.413601180E0,1.081221485E1,6.157886982E0,5.209783077E0,1.348945521E1
8.418636493E0,1.045787334E1,6.157886982E0,4.865017891E0,1.307497939E1
8.423641289E0,1.016099167E1,6.196194172E0,4.568136692E0,1.274780164E1
8.428676602E0,9.844957352E0,6.234501362E0,4.242525578E0,1.240125864E1
8.433711915E0,9.615114212E0,6.339846134E0,3.763684988E0,1.211649269E1
8.438747228E0,9.299078941E0,6.234501362E0,3.447650433E0,1.171444279E1
8.443752024E0,8.858546257E0,6.062118530E0,3.198653460E0,1.120064761E1
8.448787337E0,8.360552788E0,5.937620163E0,2.892195702E0,1.065452824E1
8.453822650E0,7.757213593E0,5.755661011E0,2.806004286E0,1.005861106E1
8.458857963E0,7.383718014E0,5.573701382E0,2.815581083E0,9.670208666E0
8.463862759E0,6.876147270E0,5.382165432E0,2.806004286E0,9.171846383E0
8.468898072E0,6.665457726E0,5.238513470E0,2.633621931E0,8.877292072E0
8.473933385E0,6.349422932E0,5.190629482E0,2.738966703E0,8.646371759E0
