"Time (s)","Acceleration x (m/s^2)","Acceleration y (m/s^2)","Acceleration z (m/s^2)","Absolute acceleration (m/s^2)"
8.875991000E-3,-1.599326730E0,2.413355350E0,8.705317497E0,9.174131172E0
1.391130300E-2,-1.407790542E0,2.403778553E0,9.002198219E0,9.423353879E0
1.894661700E-2,-1.197100878E0,2.250549555E0,9.241618156E0,9.586737190E0
2.398193000E-2,-1.063025594E0,2.250549555E0,9.375694275E0,9.700445343E0
2.901724300E-2,-8.810662031E-1,2.116474390E0,9.662998199E0,9.931227301E0
3.402203800E-2,-8.714894056E-1,2.059013367E0,9.873687744E0,1.012367223E1
3.905735200E-2,-8.619126081E-1,1.905784607E0,1.018972206E1,1.040217977E1
4.409266500E-2,-9.002198577E-1,1.896207690E0,1.027591324E1,1.048810718E1
4.912797800E-2,-9.864110947E-1,1.742978811E0,1.041956615E1,1.061029410E1
5.413277300E-2,-1.101332784E0,1.666364431E0,1.040998936E1,1.059988598E1
5.916808700E-2,-1.369483352E0,1.551442742E0,1.049618053E1,1.069823654E1
6.420339900E-2,-1.752555609E0,1.417367458E0,1.044829655E1,1.068865204E1
6.923871300E-2,-1.350329757E0,1.359906554E0,1.012268448E1,1.030249860E1
7.427402600E-2,-1.331176162E0,1.321599364E0,9.758766174E0,9.937412747E0
7.927882200E-2,-1.455674648E0,1.177947283E0,9.595960617E0,9.776963161E0
8.431413400E-2,-1.407790542E0,1.244984865E0,9.682151794E0,9.862855818E0
8.934944700E-2,-1.158793569E0,1.321599364E0,9.758766174E0,9.915792689E0
9.438476000E-2,-1.015141487E0,1.493981838E0,9.844957352E0,1.000927966E1
9.942007300E-2,-9.385270476E-1,1.580173135E0,1.001733971E1,1.018454098E1
1.044248690E-1,-9.672574997E-1,1.733402014E0,9.988609314E0,1.018393763E1
1.094601820E-1,-9.481038451E-1,1.915361404E0,1.009395409E1,1.031772355E1
1.144954950E-1,-1.005564690E0,1.838746905E0,1.014183807E1,1.035611076E1
1.195308080E-1,-9.576807022E-1,1.867477298E0,1.015141487E1,1.036609124E1
1.245661220E-1,-9.097966552E-1,1.829170108E0,1.018972206E1,1.039249869E1
1.295709170E-1,-9.289502501E-1,1.762132406E0,1.011310768E1,1.030742481E1
1.346062300E-1,-8.331822157E-1,1.790862918E0,1.017056847E1,1.036059098E1
1.396415430E-1,-8.523358107E-1,1.829170108E0,9.988609314E0,1.019041980E1
1.446768560E-1,-9.193734527E-1,1.867477298E0,1.008437729E1,1.029695995E1
1.496816520E-1,-9.097966552E-1,1.810016513E0,9.940725327E0,1.014504361E1
1.547169650E-1,-7.565677166E-1,1.781286120E0,9.969455719E0,1.015556115E1
1.597522780E-1,-6.991068721E-1,1.666364431E0,9.787496567E0,9.952919666E0
1.647875910E-1,-5.746083856E-1,1.608903527E0,9.662998199E0,9.812862964E0
1.698229040E-1,-6.416460276E-1,1.369483352E0,9.414001465E0,9.534705966E0
1.748277000E-1,-7.374141216E-1,1.379060149E0,9.337387085E0,9.467438094E0
1.798630130E-1,-7.948749661E-1,1.331176162E0,9.155426979E0,9.285779416E0
1.848983260E-1,-9.672574997E-1,1.273715258E0,9.165003777E0,9.303506428E0
1.899336390E-1,-1.158793569E0,1.379060149E0,9.145850182E0,9.321544130E0
1.949384350E-1,-1.130063176E0,1.407790542E0,9.136273384E0,9.312916210E0
1.999737480E-1,-9.289502501E-1,1.551442742E0,9.203310966E0,9.379278005E0
2.050090610E-1,-8.044517636E-1,1.513135433E0,9.299078941E0,9.455664474E0
2.100443740E-1,-7.565677166E-1,1.570596337E0,9.394847870E0,9.555225485E0
2.150796860E-1,-6.895300746E-1,1.570596337E0,9.500192642E0,9.653801573E0
2.200844820E-1,-6.224924326E-1,1.570596337E0,9.720458984E0,9.866184295E0
2.251197960E-1,-7.086837292E-1,1.532289028E0,9.777919769E0,9.922593275E0
2.301551090E-1,-5.746083856E-1,1.551442742E0,9.931148529E0,1.006801174E1
2.351904210E-1,-5.171475410E-1,1.666364431E0,1.011310768E1,1.026251231E1
2.402257350E-1,-5.841852427E-1,1.714248419E0,1.021845245E1,1.037770160E1
2.452305310E-1,-5.171475410E-1,1.742978811E0,1.027591324E1,1.043550716E1
2.502658440E-1,-4.884171486E-1,1.781286120E0,1.033337498E1,1.049715056E1
2.553011560E-1,-3.256114423E-1,1.675941229E0,1.026633644E1,1.040732750E1
2.603364700E-1,-1.915361285E-1,1.628057122E0,1.024718285E1,1.037747620E1
2.653717820E-1,-1.340752989E-1,1.340752959E0,1.035252857E1,1.043984878E1
2.703765780E-1,-1.723825186E-1,1.177947283E0,1.035252857E1,1.042075445E1
2.754118910E-1,-2.585737705E-1,9.864110947E-1,1.027591324E1,1.032638660E1
2.804472050E-1,-4.596867263E-1,8.427590132E-1,1.008437729E1,1.012996643E1
2.854825170E-1,-5.746083856E-1,8.427590132E-1,1.009395409E1,1.014535986E1
2.904873130E-1,-6.320692301E-1,1.043871999E0,1.000776291E1,1.008188964E1
2.955226260E-1,-6.703764796E-1,1.244984865E0,9.816226959E0,9.917545243E0
3.005579390E-1,-7.469909191E-1,1.369483352E0,9.730035782E0,9.854292283E0
3.055932520E-1,-8.044517636E-1,1.522712231E0,9.634267807E0,9.786976620E0
3.105980480E-1,-8.236053586E-1,1.570596337E0,9.624691010E0,9.786714243E0
3.156333610E-1,-8.236053586E-1,1.656787634E0,9.576807022E0,9.753896851E0
3.206686740E-1,-6.799532771E-1,1.618480325E0,9.557653427E0,9.717538477E0
3.257039870E-1,-7.469909191E-1,1.599326730E0,9.653421402E0,9.813479820E0
3.307393000E-1,-8.619126081E-1,1.608903527E0,9.634267807E0,9.805640218E0
3.357440960E-1,-8.619126081E-1,1.513135433E0,9.605537415E0,9.762111514E0
3.407794090E-1,-1.005564690E0,1.493981838E0,9.595960617E0,9.763483100E0
3.458147220E-1,-1.015141487E0,1.503558636E0,9.605537415E0,9.775354205E0
3.508500340E-1,-9.576807022E-1,1.484405041E0,9.605537415E0,9.766624784E0
3.558548310E-1,-9.097966552E-1,1.493981838E0,9.672574997E0,9.829466860E0
3.608901440E-1,-9.385270476E-1,1.398213744E0,9.643844604E0,9.789768815E0
3.659254570E-1,-7.469909191E-1,1.388636947E0,9.595960617E0,9.724647457E0
3.709607690E-1,-2.873041928E-1,1.762132406E0,9.136273384E0,9.309089411E0
3.759960830E-1,-1.723825186E-1,1.829170108E0,9.126696587E0,9.309788913E0
3.810008790E-1,-1.819593310E-1,1.905784607E0,9.097966194E0,9.297209960E0
3.860361920E-1,-2.011129409E-1,1.800439715E0,9.193734169E0,9.370527069E0
3.910715040E-1,-1.532289088E-1,1.742978811E0,9.375694275E0,9.537562444E0
3.961068180E-1,-1.628057212E-1,1.503558636E0,9.471462250E0,9.591443657E0
4.011421300E-1,-2.011129409E-1,1.388636947E0,9.758766174E0,9.859121474E0
4.061469270E-1,-1.340752989E-1,1.168370485E0,9.940725327E0,1.001004924E1
4.111822390E-1,-2.106897533E-1,9.672574997E-1,1.017056847E1,1.021863201E1
4.162175530E-1,-2.585737705E-1,8.619126081E-1,1.036210537E1,1.040110482E1
4.212528650E-1,-4.309563041E-1,7.565677166E-1,1.051533413E1,1.055132077E1
4.262576610E-1,-5.363011956E-1,6.607996821E-1,1.059194851E1,1.062608340E1
4.312929740E-1,-7.182605267E-1,7.469909191E-1,1.062067890E1,1.067111587E1
4.363282880E-1,-9.385270476E-1,7.852981687E-1,1.074517727E1,1.081463641E1
4.413636000E-1,-1.120486379E0,8.523358107E-1,1.062067890E1,1.071357953E1
4.463989140E-1,-1.216254473E0,9.097966552E-1,1.045787334E1,1.056759764E1
4.514037090E-1,-1.225831270E0,8.810662031E-1,1.033337498E1,1.044306365E1
4.564390230E-1,-1.206677675E0,9.289502501E-1,1.013226128E1,1.024605964E1
4.614743350E-1,-1.034295082E0,8.906430602E-1,9.959878922E0,1.005296969E1
4.665096490E-1,-8.810662031E-1,8.810662031E-1,9.806650162E0,9.885491526E0
4.715449610E-1,-7.565677166E-1,9.097966552E-1,9.883264542E0,9.953845622E0
4.765497570E-1,-5.937620401E-1,8.236053586E-1,9.883264542E0,9.935280426E0
4.815850700E-1,-6.416460276E-1,7.086837292E-1,1.002691650E1,1.007238784E1
4.866203840E-1,-6.033388376E-1,6.224924326E-1,1.009395409E1,1.013111167E1
4.916556960E-1,-5.267243981E-1,1.043871999E0,1.025675964E1,1.032318874E1
4.966910090E-1,-6.703764796E-1,1.043871999E0,1.022802925E1,1.030299256E1
5.016958050E-1,-8.140285611E-1,9.097966552E-1,1.025675964E1,1.032915731E1
5.067311190E-1,-8.044517636E-1,7.182605267E-1,9.921571732E0,9.980011345E0
5.117664310E-1,-7.757213712E-1,6.991068721E-1,9.452308655E0,9.509817715E0
5.168017440E-1,-8.427590132E-1,6.991068721E-1,9.078812599E0,9.144606683E0
5.218370570E-1,-8.714894056E-1,6.895300746E-1,8.935160637E0,9.004001395E0
5.268418520E-1,-1.005564690E0,7.469909191E-1,9.040505409E0,9.126877551E0
5.318771660E-1,-1.197100878E0,8.140285611E-1,9.404424667E0,9.515192922E0
5.369124790E-1,-1.388636947E0,8.523358107E-1,9.567230225E0,9.704982384E0
5.419477920E-1,-1.474828243E0,9.576807022E-1,9.548076630E0,9.708657889E0
5.469525870E-1,-1.417367458E0,1.034295082E0,9.605537415E0,9.764478780E0
5.519879010E-1,-1.187524080E0,1.034295082E0,9.864110947E0,9.989027206E0
5.570232130E-1,-9.097966552E-1,9.864110947E-1,1.011310768E1,1.020174905E1
5.620585270E-1,-5.937620401E-1,1.015141487E0,1.034295177E1,1.040959735E1
5.670938400E-1,-3.734954596E-1,1.005564690E0,1.048660374E1,1.054132426E1
5.720986360E-1,-3.447650373E-1,9.289502501E-1,1.062067890E1,1.066680045E1
5.771339480E-1,-3.447650373E-1,9.002198577E-1,1.043871975E1,1.048313544E1
5.821692620E-1,-6.129156351E-1,1.015141487E0,1.024718285E1,1.031556756E1
5.872045750E-1,-7.948749661E-1,9.385270476E-1,1.004607010E1,1.012107621E1
5.922093710E-1,-1.082179189E0,1.043871999E0,9.806650162E0,9.921248306E0
5.972446830E-1,-1.264138460E0,1.101332784E0,9.538499832E0,9.684728132E0
6.022799970E-1,-1.379060149E0,1.110909581E0,9.174580574E0,9.343920789E0
6.073153090E-1,-1.436521053E0,1.101332784E0,8.762778282E0,8.947782399E0
6.123506220E-1,-1.484405041E0,1.158793569E0,8.513781548E0,8.719560602E0
6.173554180E-1,-1.561019540E0,1.235408068E0,8.398859978E0,8.631562085E0
6.223907320E-1,-1.532289028E0,1.225831270E0,8.350975990E0,8.578424795E0
6.274260440E-1,-1.580173135E0,1.216254473E0,8.283937454E0,8.520554080E0
6.324613570E-1,-1.589749932E0,1.273715258E0,8.360552788E0,8.605143713E0
6.374661530E-1,-1.474828243E0,1.273715258E0,8.418013573E0,8.640626217E0
6.425014670E-1,-1.493981838E0,1.292868972E0,8.465897560E0,8.693383312E0
6.475367790E-1,-1.350329757E0,1.273715258E0,8.580819130E0,8.779305095E0
6.525720920E-1,-1.139639974E0,1.292868972E0,8.542511940E0,8.714631357E0
6.576074050E-1,-9.672574997E-1,1.130063176E0,8.619126320E0,8.746540366E0
6.626122020E-1,-7.852981687E-1,1.091755986E0,8.609549522E0,8.713952451E0
6.676475140E-1,-7.086837292E-1,1.043871999E0,8.734047890E0,8.824709282E0
6.726828270E-1,-5.458779931E-1,9.768342972E-1,8.753201485E0,8.824439034E0
6.777181400E-1,-6.224924326E-1,8.427590132E-1,8.916007042E0,8.977356022E0
6.827229360E-1,-6.224924326E-1,7.757213712E-1,8.992621422E0,9.047457130E0
6.877582490E-1,-7.182605267E-1,6.799532771E-1,9.212887764E0,9.265826223E0
6.927935620E-1,-8.523358107E-1,6.033388376E-1,9.528923035E0,9.585972475E0
6.978288750E-1,-9.097966552E-1,4.501099288E-1,9.710882187E0,9.763788289E0
7.028641880E-1,-9.672574997E-1,4.692635238E-1,9.940725327E0,9.998690681E0
7.078689840E-1,-8.906430602E-1,4.213795066E-1,1.016099167E1,1.020865111E1
7.129042970E-1,-8.906430602E-1,3.734954596E-1,1.027591324E1,1.032119842E1
7.179396100E-1,-8.619126081E-1,4.405331016E-1,1.042914295E1,1.047396704E1
7.229749230E-1,-8.427590132E-1,4.788403511E-1,1.046745014E1,1.051223303E1
7.279797190E-1,-8.044517636E-1,4.405331016E-1,1.052491093E1,1.056479825E1
7.330150310E-1,-7.661445141E-1,4.979939461E-1,1.059194851E1,1.063129101E1
7.380503450E-1,-7.757213712E-1,4.692635238E-1,1.049618053E1,1.053526258E1
7.430856580E-1,-7.565677166E-1,5.841852427E-1,1.060152531E1,1.064452939E1
7.480904540E-1,-7.565677166E-1,6.033388376E-1,1.055364132E1,1.059791289E1
7.531257660E-1,-7.757213712E-1,6.703764796E-1,1.045787334E1,1.050800948E1
7.581610800E-1,-6.703764796E-1,5.937620401E-1,1.044829655E1,1.048660377E1
7.631963920E-1,-6.416460276E-1,6.320692301E-1,1.026633644E1,1.030576950E1
7.682317050E-1,-5.554547906E-1,5.171475410E-1,9.883264542E0,9.912360446E0
7.732365010E-1,-4.979939461E-1,4.118026793E-1,9.662998199E0,9.684581231E0
7.782718150E-1,-5.554547906E-1,3.830722570E-1,9.509769440E0,9.533676582E0
7.833071270E-1,-6.033388376E-1,4.118026793E-1,9.289502144E0,9.318178431E0
7.883424400E-1,-6.799532771E-1,3.543418646E-1,9.059659004E0,9.092046848E0
7.933777540E-1,-8.236053586E-1,2.968810201E-1,8.983044624E0,9.025605512E0
7.983825500E-1,-8.714894056E-1,4.213795066E-1,8.925583839E0,8.977922997E0
8.034178620E-1,-8.236053586E-1,4.309563041E-1,9.059659004E0,9.107220783E0
8.084531750E-1,-8.236053586E-1,4.022258818E-1,9.021351814E0,9.067794660E0
8.134884880E-1,-8.714894056E-1,4.979939461E-1,9.126696587E0,9.181725455E0
8.184932850E-1,-7.661445141E-1,5.458779931E-1,9.299078941E0,9.346541037E0
8.235285970E-1,-6.703764796E-1,6.703764796E-1,9.375694275E0,9.423505313E0
8.285639100E-1,-6.224924326E-1,7.374141216E-1,9.519346237E0,9.568136140E0
8.335992230E-1,-4.596867263E-1,8.523358107E-1,9.662998199E0,9.711401671E0
8.386345360E-1,-3.639186621E-1,9.002198577E-1,9.911994934E0,9.959441559E0
8.436393320E-1,-2.777273953E-1,9.193734527E-1,1.011310768E1,1.015860852E1
8.486746450E-1,-1.628057212E-1,9.768342972E-1,1.033337498E1,1.038072008E1
8.537099580E-1,-1.340752989E-1,1.015141487E0,1.057279491E1,1.062226345E1
8.587452710E-1,-7.661445439E-2,9.864110947E-1,1.058237171E1,1.062852142E1
8.637500670E-1,9.576806799E-3,9.576807022E-1,1.062067890E1,1.066377346E1
8.687853800E-1,-7.661445439E-2,1.005564690E0,1.064940929E1,1.069705326E1
8.738206930E-1,-2.873041928E-1,1.110909581E0,1.074517727E1,1.080627125E1
8.788560060E-1,-2.873041928E-1,1.043871999E0,1.068771648E1,1.074241575E1
8.838913190E-1,-1.244984865E-1,8.810662031E-1,1.053448772E1,1.057200119E1
8.888961140E-1,1.915361360E-2,9.097966552E-1,1.044829655E1,1.048785000E1
8.939314280E-1,2.011129409E-1,8.523358107E-1,1.043871975E1,1.047538986E1
8.989667410E-1,1.340752989E-1,7.565677166E-1,1.036210537E1,1.039055333E1
9.040020540E-1,1.149216816E-1,6.895300746E-1,1.021845245E1,1.024233515E1
9.090373670E-1,-6.703764945E-2,6.129156351E-1,1.021845245E1,1.023703718E1
9.140421630E-1,-1.628057212E-1,6.895300746E-1,9.988609314E0,1.001370428E1
9.190774760E-1,-2.968810201E-1,7.469909191E-1,9.902418137E0,9.934989619E0
9.241127890E-1,-3.351882398E-1,7.661445141E-1,9.682151794E0,9.718199007E0
9.291481020E-1,-3.734954596E-1,7.565677166E-1,9.586383820E0,9.623442643E0
9.341834140E-1,-4.405331016E-1,6.607996821E-1,9.452308655E0,9.485613556E0
9.391882100E-1,-5.075707436E-1,6.895300746E-1,9.346963882E0,9.386096825E0
9.442235240E-1,-5.650315881E-1,6.416460276E-1,9.308655739E0,9.347836219E0
9.492588370E-1,-6.607996821E-1,5.650315881E-1,9.279925346E0,9.320564969E0
9.542941490E-1,-6.895300746E-1,6.224924326E-1,9.299078941E0,9.345363434E0
9.593294630E-1,-6.703764796E-1,6.416460276E-1,9.375694275E0,9.421505049E0
9.643342580E-1,-6.320692301E-1,6.895300746E-1,9.509769440E0,9.555662093E0
9.693695710E-1,-6.607996821E-1,6.607996821E-1,9.615114212E0,9.660420992E0
9.744048840E-1,-5.554547906E-1,7.182605267E-1,9.758766174E0,9.800915542E0
9.794401980E-1,-4.309563041E-1,7.948749661E-1,9.835380554E0,9.876854772E0
9.844449930E-1,-2.968810201E-1,8.810662031E-1,9.787496567E0,9.831556593E0
9.894803060E-1,-9.576806426E-2,9.385270476E-1,9.921571732E0,9.966322801E0
9.945156190E-1,2.873042040E-2,1.206677675E0,9.825803757E0,9.899662414E0
9.995509330E-1,1.723825186E-1,1.264138460E0,9.749189377E0,9.832316883E0
1.004555728E0,3.351882398E-1,1.407790542E0,9.825803757E0,9.931799677E0
1.009591041E0,4.692635238E-1,1.618480325E0,9.720458984E0,9.865445235E0
1.014626354E0,4.788403511E-1,1.723825216E0,9.653421402E0,9.817810663E0
1.019661667E0,5.458779931E-1,1.886630893E0,9.672574997E0,9.869957750E0
1.024696980E0,4.884171486E-1,2.020706177E0,9.701305389E0,9.921548822E0
1.029701776E0,4.692635238E-1,2.001552582E0,9.797073364E0,1.001044792E1
1.034737089E0,4.309563041E-1,2.106897593E0,9.959878922E0,1.018940278E1
1.039772402E0,4.118026793E-1,2.145204782E0,1.004607010E1,1.028080782E1
1.044807715E0,4.979939461E-1,2.097320795E0,1.010353088E1,1.033092875E1
1.049812511E0,3.830722570E-1,2.116474390E0,9.979032516E0,1.020819760E1
1.054847824E0,1.819593310E-1,2.068590164E0,1.007480049E1,1.028658249E1
1.059883137E0,1.149216816E-1,1.915361404E0,1.011310768E1,1.029353017E1
1.064918450E0,-1.340752989E-1,1.742978811E0,1.008437729E1,1.023477487E1
1.069953762E0,-1.915361285E-1,1.570596337E0,1.011310768E1,1.023613237E1
1.074958559E0,-3.830722570E-1,1.436521053E0,1.000776291E1,1.011759139E1
1.079993872E0,-4.979939461E-1,1.350329757E0,9.979032516E0,1.008228538E1
1.085029185E0,-5.075707436E-1,1.235408068E0,9.835380554E0,9.925652210E0
1.090064497E0,-5.937620401E-1,1.130063176E0,9.825803757E0,9.908381079E0
1.095099811E0,-7.182605267E-1,9.768342972E-1,9.730035782E0,9.805289376E0
1.100104607E0,-7.948749661E-1,9.672574997E-1,9.701305389E0,9.781755443E0
1.105139920E0,-9.385270476E-1,9.385270476E-1,9.557653427E0,9.649373299E0
1.110175232E0,-1.034295082E0,9.193734527E-1,9.490615845E0,9.590975079E0
1.115210546E0,-1.072602391E0,9.193734527E-1,9.500192642E0,9.604654271E0
1.120215342E0,-1.091755986E0,9.097966552E-1,9.509769440E0,9.615371854E0
1.125250655E0,-1.043871999E0,9.097966552E-1,9.538499832E0,9.638484204E0
1.130285967E0,-1.005564690E0,9.385270476E-1,9.442731857E0,9.542388500E0
1.135321281E0,-8.906430602E-1,9.672574997E-1,9.442731857E0,9.533835380E0
1.140356593E0,-9.002198577E-1,9.768342972E-1,9.318233490E0,9.412442638E0
1.145361389E0,-9.385270476E-1,9.193734527E-1,9.327810287E0,9.419879263E0
1.150396702E0,-8.906430602E-1,8.810662031E-1,9.299078941E0,9.383090742E0
1.155432016E0,-9.385270476E-1,8.714894056E-1,9.356540680E0,9.443790568E0
1.160467328E0,-8.427590132E-1,8.906430602E-1,9.299078941E0,9.379571257E0
1.165472124E0,-8.619126081E-1,9.672574997E-1,9.375694275E0,9.464783334E0
1.170507437E0,-8.906430602E-1,9.768342972E-1,9.385271072E0,9.477909232E0
1.175542750E0,-7.757213712E-1,1.082179189E0,9.442731857E0,9.536143894E0
1.180578063E0,-7.182605267E-1,1.120486379E0,9.538499832E0,9.630906861E0
1.185613376E0,-6.129156351E-1,1.168370485E0,9.557653427E0,9.648289703E0
1.190618172E0,-5.267243981E-1,1.225831270E0,9.586383820E0,9.678783789E0
1.195653485E0,-5.075707436E-1,1.321599364E0,9.605537415E0,9.709304917E0
1.200688798E0,-4.309563041E-1,1.340752959E0,9.653421402E0,9.755607956E0
1.205724111E0,-4.309563041E-1,1.331176162E0,9.624691010E0,9.725863989E0
1.210728907E0,-3.734954596E-1,1.379060149E0,9.595960617E0,9.701740355E0
1.215764220E0,-2.968810201E-1,1.417367458E0,9.634267807E0,9.742493779E0
1.220799533E0,-3.351882398E-1,1.359906554E0,9.557653427E0,9.659732710E0
1.225834845E0,-2.968810201E-1,1.407790542E0,9.653421402E0,9.760049043E0
1.230839642E0,-2.106897533E-1,1.426944256E0,9.634267807E0,9.741646486E0
1.235874955E0,-2.777273953E-1,1.503558636E0,9.643844604E0,9.764300274E0
1.240910268E0,-2.681505978E-1,1.503558636E0,9.682151794E0,9.801870061E0
1.245945580E0,-3.256114423E-1,1.493981838E0,9.634267807E0,9.754851138E0
1.250950376E0,-4.213795066E-1,1.561019540E0,9.662998199E0,9.797340297E0
1.255985690E0,-4.309563041E-1,1.532289028E0,9.672574997E0,9.802670048E0
1.261021003E0,-4.309563041E-1,1.599326730E0,9.643844604E0,9.785055344E0
1.266056315E0,-4.022258818E-1,1.570596337E0,9.643844604E0,9.779176717E0
1.271061111E0,-4.501099288E-1,1.493981838E0,9.624691010E0,9.750346543E0
1.276096425E0,-3.926490843E-1,1.436521053E0,9.624691010E0,9.739221892E0
1.281131738E0,-4.692635238E-1,1.426944256E0,9.643844604E0,9.760128940E0
1.286167050E0,-4.118026793E-1,1.340752959E0,9.643844604E0,9.745303418E0
1.291171846E0,-4.501099288E-1,1.388636947E0,9.787496567E0,9.895756695E0
1.296207160E0,-4.405331016E-1,1.359906554E0,9.682151794E0,9.787107776E0
1.301242472E0,-4.405331016E-1,1.235408068E0,9.720458984E0,9.808548587E0
1.306277785E0,-4.884171486E-1,1.235408068E0,9.777919769E0,9.867750474E0
1.311313099E0,-4.405331016E-1,1.053448796E0,9.643844604E0,9.711208088E0
1.316317895E0,-5.267243981E-1,1.149216771E0,9.634267807E0,9.716854118E0
1.321353207E0,-5.458779931E-1,9.864110947E-1,9.548076630E0,9.614403619E0
1.326388520E0,-5.746083856E-1,1.034295082E0,9.557653427E0,9.630611619E0
1.331423834E0,-5.458779931E-1,9.672574997E-1,9.528923035E0,9.593432340E0
1.336428630E0,-5.746083856E-1,9.576807022E-1,9.567230225E0,9.632197117E0
1.341463942E0,-6.129156351E-1,8.427590132E-1,9.749189377E0,9.804723445E0
1.346499255E0,-6.320692301E-1,8.714894056E-1,9.816226959E0,9.875085671E0
1.351534568E0,-6.224924326E-1,7.565677166E-1,9.710882187E0,9.760180551E0
1.356569881E0,-5.458779931E-1,7.565677166E-1,9.730035782E0,9.774659780E0
1.361574677E0,-6.224924326E-1,6.512228847E-1,9.758766174E0,9.800260472E0
1.366609990E0,-5.650315881E-1,6.991068721E-1,9.797073364E0,9.838224312E0
1.371645303E0,-5.554547906E-1,6.991068721E-1,9.739612579E0,9.780456719E0
1.376680616E0,-5.841852427E-1,7.948749661E-1,9.739612579E0,9.789440832E0
1.381685412E0,-6.129156351E-1,8.140285611E-1,9.653421402E0,9.707051707E0
1.386720725E0,-5.746083856E-1,7.948749661E-1,9.691728592E0,9.741232166E0
1.391756038E0,-6.129156351E-1,7.948749661E-1,9.682151794E0,9.734041050E0
1.396791351E0,-6.416460276E-1,8.523358107E-1,9.538499832E0,9.597977131E0
1.401826663E0,-6.129156351E-1,9.385270476E-1,9.490615845E0,9.556583475E0
1.406831460E0,-5.267243981E-1,1.053448796E0,9.442731857E0,9.515901318E0
1.411866773E0,-3.447650373E-1,1.206677675E0,9.452308655E0,9.535254210E0
1.416902086E0,-2.011129409E-1,1.312022567E0,9.279925346E0,9.374372729E0
1.421937398E0,-1.149216816E-1,1.455674648E0,9.404424667E0,9.517110854E0
1.426942194E0,-1.915361360E-2,1.666364431E0,9.356540680E0,9.503788233E0
1.431977508E0,1.915361360E-2,1.886630893E0,9.385271072E0,9.573037976E0
1.437012821E0,3.830722719E-2,1.934514999E0,9.481039047E0,9.676462016E0
1.442048133E0,1.149216816E-1,2.049436569E0,9.481039047E0,9.700695782E0
1.447083447E0,1.340752989E-1,2.097320795E0,9.509769440E0,9.739222017E0
1.452088243E0,1.149216816E-1,2.183511972E0,9.567230225E0,9.813909807E0
1.457123555E0,1.244984865E-1,2.221819162E0,9.634267807E0,9.887926802E0
1.462158868E0,9.576806799E-3,2.087743998E0,9.710882187E0,9.932774011E0
1.467194182E0,4.788403213E-2,2.145204782E0,9.768342972E0,1.000123597E1
1.472229494E0,3.830722719E-2,2.135627985E0,9.931148529E0,1.015825209E1
1.477234290E0,-1.915361360E-2,2.087743998E0,1.007480049E1,1.028886033E1
1.482269603E0,0.000000000E0,2.049436569E0,1.019929886E1,1.040316718E1
1.487304917E0,-9.576806799E-3,2.001552582E0,1.027591324E1,1.046903517E1
1.492340229E0,9.576806799E-3,1.877054095E0,1.036210537E1,1.053074791E1
1.497375543E0,-9.576806799E-3,1.877054095E0,1.026633644E1,1.043652661E1
1.502380338E0,0.000000000E0,1.714248419E0,1.008437729E1,1.022904262E1
1.507415651E0,-1.915361285E-1,1.666364431E0,9.988609314E0,1.012846348E1
1.512450964E0,-2.585737705E-1,1.675941229E0,9.835380554E0,9.980498487E0
1.517486278E0,-2.777273953E-1,1.714248419E0,9.797073364E0,9.949795307E0
1.522521590E0,-3.447650373E-1,1.714248419E0,9.730035782E0,9.885904455E0
1.527526386E0,-3.351882398E-1,1.714248419E0,9.634267807E0,9.791328560E0
1.532561699E0,-3.447650373E-1,1.733402014E0,9.595960617E0,9.757356488E0
1.537597013E0,-2.968810201E-1,1.723825216E0,9.557653427E0,9.716401121E0
1.542632325E0,-2.681505978E-1,1.695094824E0,9.653421402E0,9.804784341E0
1.547637121E0,-3.160346150E-1,1.733402014E0,9.605537415E0,9.765803062E0
1.552672434E0,-2.873041928E-1,1.704671621E0,9.691728592E0,9.844696650E0
1.557707747E0,-2.777273953E-1,1.666364431E0,9.586383820E0,9.734097681E0
1.562743060E0,-3.351882398E-1,1.647210717E0,9.615114212E0,9.760946451E0
1.567778373E0,-3.543418646E-1,1.675941229E0,9.691728592E0,9.841947991E0
1.572783169E0,-3.639186621E-1,1.704671621E0,9.758766174E0,9.913216399E0
1.577818482E0,-3.639186621E-1,1.666364431E0,9.730035782E0,9.878400859E0
1.582853795E0,-4.596867263E-1,1.580173135E0,9.797073364E0,9.934329647E0
1.587889108E0,-4.309563041E-1,1.551442742E0,9.969455719E0,1.009865066E1
1.592924421E0,-4.596867263E-1,1.455674648E0,9.959878922E0,1.007618423E1
1.597929217E0,-3.639186621E-1,1.503558636E0,1.005564690E1,1.017394515E1
1.602964530E0,-4.692635238E-1,1.484405041E0,1.015141487E1,1.027009691E1
1.607999842E0,-3.447650373E-1,1.484405041E0,1.017056847E1,1.028410347E1
1.613035156E0,-2.968810201E-1,1.503558636E0,1.021845245E1,1.033274395E1
1.618070469E0,-3.064578176E-1,1.532289028E0,1.018972206E1,1.030884386E1
1.623075265E0,-2.585737705E-1,1.580173135E0,1.010353088E1,1.022962090E1
1.628110577E0,-2.394201756E-1,1.714248419E0,1.009395409E1,1.024128306E1
1.633145891E0,-1.915361285E-1,1.742978811E0,1.005564690E1,1.020738437E1
1.638181203E0,-1.915361285E-1,1.963245392E0,1.003649330E1,1.022850020E1
1.643186000E0,-9.576806426E-2,2.126051188E0,9.940725327E0,1.016598668E1
1.648221312E0,2.873042040E-2,2.126051188E0,9.854534149E0,1.008130757E1
1.653256626E0,1.915361360E-2,2.308010340E0,9.911994934E0,1.017717653E1
1.658291938E0,1.915361285E-1,2.422932148E0,9.883264542E0,1.017773080E1
1.663327251E0,2.106897533E-1,2.451662540E0,9.844957352E0,1.014781871E1
1.668332047E0,1.723825186E-1,2.528276920E0,9.940725327E0,1.025865098E1
1.673367361E0,2.394201756E-1,2.528276920E0,9.940725327E0,1.025999640E1
1.678402673E0,2.394201756E-1,2.576161146E0,9.950302124E0,1.028116922E1
1.683437986E0,2.777273953E-1,2.633621931E0,1.002691650E1,1.037073534E1
1.688473299E0,2.394201756E-1,2.681505919E0,1.005564690E1,1.040979493E1
1.693478096E0,2.777273953E-1,2.633621931E0,1.009395409E1,1.043556448E1
1.698513408E0,3.064578176E-1,2.652775526E0,1.011310768E1,1.045973620E1
1.703548721E0,2.298433632E-1,2.633621931E0,1.010353088E1,1.044366453E1
1.708584034E0,2.011129409E-1,2.633621931E0,1.016099167E1,1.049867432E1
1.713619347E0,2.394201756E-1,2.614468336E0,1.007480049E1,1.041126177E1
1.718624143E0,2.298433632E-1,2.604891539E0,9.950302124E0,1.028818741E1
1.723659456E0,1.915361285E-1,2.614468336E0,9.787496567E0,1.013248340E1
1.728694769E0,2.202665508E-1,2.604891539E0,9.624691010E0,9.973397330E0
1.733730082E0,1.819593310E-1,2.547430515E0,9.433155060E0,9.772764492E0
1.738734878E0,1.149216816E-1,2.509123325E0,9.385271072E0,9.715565859E0
1.743770191E0,8.619125932E-2,2.480392933E0,9.404424667E0,9.726406395E0
1.748805504E0,9.576806799E-3,2.375048161E0,9.366117477E0,9.662561880E0
1.753840817E0,-1.915361360E-2,2.154781580E0,9.557653427E0,9.797560388E0
1.758876130E0,-5.746084079E-2,2.020706177E0,9.854534149E0,1.005974147E1
1.763880925E0,-6.703764945E-2,1.800439715E0,1.013226128E1,1.029119992E1
1.768916239E0,-7.661445439E-2,1.628057122E0,1.025675964E1,1.038544935E1
1.773951552E0,-9.576806426E-2,1.436521053E0,1.047702694E1,1.057548381E1
1.778986865E0,-2.585737705E-1,1.197100878E0,1.087925243E1,1.094796988E1
1.784022178E0,-2.873041928E-1,1.034295082E0,1.115697956E1,1.120850137E1
1.789026974E0,-3.351882398E-1,8.236053586E-1,1.151132202E1,1.154561439E1
1.794062287E0,-4.022258818E-1,5.171475410E-1,1.177947235E1,1.179767757E1
1.799097600E0,-5.267243981E-1,3.160346150E-1,1.185608673E1,1.187198842E1
1.804132913E0,-5.937620401E-1,4.788403213E-2,1.193270111E1,1.194756051E1
1.809137709E0,-6.033388376E-1,-8.619125932E-2,1.195185471E1,1.196738391E1
1.814173021E0,-6.512228847E-1,-3.064578176E-1,1.183693314E1,1.185879394E1
1.819208335E0,-7.469909191E-1,-4.884171486E-1,1.156878281E1,1.160315829E1
1.824243648E0,-8.714894056E-1,-7.086837292E-1,1.124317074E1,1.129914221E1
1.829278960E0,-1.015141487E0,-6.416460276E-1,1.086967564E1,1.093581594E1
1.834283756E0,-1.120486379E0,-6.991068721E-1,1.052491093E1,1.060744975E1
1.839319069E0,-1.168370485E0,-6.799532771E-1,1.008437729E1,1.017458065E1
1.844354382E0,-1.168370485E0,-5.746083856E-1,9.892841339E0,9.978154847E0
1.849389695E0,-1.244984865E0,-3.830722570E-1,9.557653427E0,9.646008019E0
1.854425009E0,-1.321599364E0,-2.394201756E-1,9.251194954E0,9.348184582E0
1.859429804E0,-1.264138460E0,-8.619125932E-2,8.906430244E0,8.996108863E0
1.864465117E0,-1.168370485E0,1.340752989E-1,8.753201485E0,8.831851562E0
1.869500430E0,-1.101332784E0,3.543418646E-1,8.542511940E0,8.620498959E0
1.874535744E0,-1.091755986E0,6.224924326E-1,8.408436775E0,8.501837270E0
1.879540539E0,-9.385270476E-1,8.427590132E-1,8.264783859E0,8.360486111E0
1.884575852E0,-8.523358107E-1,1.063025594E0,8.245630264E0,8.357446871E0
1.889611165E0,-7.757213712E-1,1.292868972E0,8.245630264E0,8.382342887E0
1.894646478E0,-6.033388376E-1,1.589749932E0,8.331821442E0,8.503562262E0
1.899681791E0,-4.213795066E-1,1.762132406E0,8.274360657E0,8.470402327E0
1.904686587E0,-3.160346150E-1,1.867477298E0,8.293514252E0,8.507039907E0
1.909721900E0,-3.064578176E-1,1.915361404E0,8.121131897E0,8.349569390E0
1.914757213E0,-3.256114423E-1,1.944091797E0,8.092401505E0,8.329014218E0
1.919792526E0,-2.298433632E-1,2.011129379E0,8.073247910E0,8.323148512E0
1.924827839E0,-1.723825186E-1,2.049436569E0,8.111555099E0,8.368227537E0
1.929832635E0,0.000000000E0,2.135627985E0,8.149862289E0,8.425031883E0
1.934867948E0,5.746084079E-2,2.097320795E0,8.264783859E0,8.526940161E0
1.939903261E0,1.628057212E-1,2.164358377E0,8.283937454E0,8.563560745E0
1.944938573E0,1.149216816E-1,2.173935175E0,8.552088737E0,8.824818577E0
1.949973887E0,1.819593310E-1,2.078166962E0,8.667010307E0,8.914536151E0
1.954978683E0,1.340752989E-1,1.915361404E0,8.887276649E0,9.092319382E0
1.960013996E0,1.819593310E-1,1.790862918E0,9.232041359E0,9.405896387E0
1.965049308E0,2.873042040E-2,1.695094824E0,9.528923035E0,9.678561159E0
1.970084622E0,0.000000000E0,1.446097851E0,9.739612579E0,9.846382696E0
1.975089418E0,-1.628057212E-1,1.216254473E0,9.921571732E0,9.997167912E0
1.980124731E0,-2.106897533E-1,1.015141487E0,1.008437729E1,1.013753262E1
1.985160043E0,-2.202665508E-1,7.182605267E-1,1.023760605E1,1.026513483E1
1.990195357E0,-2.777273953E-1,6.224924326E-1,1.039083576E1,1.041316941E1
1.995230669E0,-2.968810201E-1,4.788403511E-1,1.046745014E1,1.048260172E1
2.000235466E0,-4.118026793E-1,4.022258818E-1,1.063025570E1,1.064583033E1
2.005270778E0,-4.596867263E-1,3.256114423E-1,1.072602367E1,1.074080623E1
2.010306092E0,-4.979939461E-1,2.968810201E-1,1.074517727E1,1.076080717E1
2.015341404E0,-6.799532771E-1,2.106897533E-1,1.077390766E1,1.079739843E1
2.020376718E0,-6.703764796E-1,1.053448766E-1,1.084094524E1,1.086216350E1
2.025381513E0,-7.374141216E-1,2.873042040E-2,1.089840603E1,1.092336299E1
2.030416827E0,-7.182605267E-1,-1.053448766E-1,1.085052204E1,1.087477928E1
2.035452139E0,-9.097966552E-1,-1.628057212E-1,1.087925243E1,1.091844170E1
2.040487452E0,-9.768342972E-1,-3.160346150E-1,1.082179165E1,1.087038443E1
2.045522765E0,-1.005564690E0,-3.830722570E-1,1.065898609E1,1.071316429E1
2.050527561E0,-1.120486379E0,-3.830722570E-1,1.053448772E1,1.060083325E1
2.055562874E0,-1.149216771E0,-5.458779931E-1,1.031422138E1,1.039239360E1
2.060598187E0,-1.273715258E0,-4.884171486E-1,1.016099167E1,1.025215361E1
2.065633500E0,-1.206677675E0,-6.129156351E-1,9.854534149E0,9.947038750E0
2.070668813E0,-1.244984865E0,-6.224924326E-1,9.749189377E0,9.848054511E0
2.075673609E0,-1.379060149E0,-6.607996821E-1,9.471462250E0,9.594115919E0
2.080708922E0,-1.455674648E0,-6.512228847E-1,9.308655739E0,9.444265540E0
2.085744235E0,-1.599326730E0,-6.991068721E-1,9.002198219E0,9.169851099E0
2.090779548E0,-1.742978811E0,-6.512228847E-1,8.858546257E0,9.051845567E0
2.095784344E0,-1.695094824E0,-5.746083856E-1,8.772355080E0,8.953085217E0
2.100819656E0,-1.781286120E0,-6.033388376E-1,8.695740700E0,8.896791799E0
2.105854970E0,-1.771709204E0,-5.746083856E-1,8.695740700E0,8.892976702E0
2.110890283E0,-1.810016513E0,-5.937620401E-1,8.705317497E0,8.911299898E0
2.115925596E0,-1.733402014E0,-5.650315881E-1,8.705317497E0,8.894183266E0
2.120930391E0,-1.647210717E0,-6.320692301E-1,8.781931877E0,8.957407111E0
2.125965705E0,-1.532289028E0,-5.267243981E-1,8.877699852E0,9.024350554E0
2.131001018E0,-1.522712231E0,-5.363011956E-1,8.848969460E0,8.995028183E0
2.136036331E0,-1.484405041E0,-5.171475410E-1,8.916007042E0,9.053512107E0
2.141071644E0,-1.331176162E0,-3.926490843E-1,9.050082207E0,9.155882875E0
2.146076440E0,-1.340752959E0,-3.830722570E-1,9.002198219E0,9.109551890E0
2.151111752E0,-1.283292055E0,-2.873041928E-1,9.040505409E0,9.135651058E0
2.156147066E0,-1.254561663E0,-2.585737705E-1,9.030928612E0,9.121318816E0
2.161182379E0,-1.149216771E0,-2.298433632E-1,9.117119789E0,9.192137967E0
2.166217691E0,-1.091755986E0,-1.149216816E-1,9.145850182E0,9.211498991E0
2.171222487E0,-1.005564690E0,-1.436520964E-1,9.308655739E0,9.363913067E0
2.176257801E0,-1.053448796E0,-4.788403213E-2,9.423578262E0,9.482398141E0
2.181293114E0,-1.005564690E0,1.915361360E-2,9.461885452E0,9.515188044E0
2.186328426E0,-8.906430602E-1,-3.830722719E-2,9.634267807E0,9.675423954E0
2.191363740E0,-8.810662031E-1,1.053448766E-1,9.777919769E0,9.818100133E0
2.196368536E0,-8.044517636E-1,8.619125932E-2,9.864110947E0,9.897234783E0
2.201403848E0,-7.374141216E-1,2.011129409E-1,9.969455719E0,9.998713584E0
2.206439161E0,-6.703764796E-1,2.394201756E-1,1.024718285E1,1.027187826E1
2.211474475E0,-6.512228847E-1,2.585737705E-1,1.043871975E1,1.046220921E1
2.216479271E0,-6.416460276E-1,3.639186621E-1,1.053448772E1,1.056028305E1
2.221514583E0,-5.267243981E-1,3.734954596E-1,1.067813969E1,1.069764482E1
2.226549896E0,-4.884171486E-1,4.501099288E-1,1.083136845E1,1.085171381E1
2.231585209E0,-4.501099288E-1,5.171475410E-1,1.097502041E1,1.099641367E1
2.236620522E0,-3.447650373E-1,5.746083856E-1,1.104205799E1,1.106237237E1
2.241625318E0,-3.447650373E-1,6.607996821E-1,1.101332760E1,1.103851910E1
2.246660631E0,-3.160346150E-1,7.661445141E-1,1.100375080E1,1.103491672E1
2.251695944E0,-1.915361285E-1,9.097966552E-1,1.086967564E1,1.090936591E1
2.256731257E0,6.703764945E-2,1.101332784E0,1.063025570E1,1.068736470E1
2.261766570E0,1.723825186E-1,1.292868972E0,1.042914295E1,1.051038765E1
2.266771366E0,2.968810201E-1,1.379060149E0,1.020887566E1,1.030587635E1
2.271806679E0,2.489969730E-1,1.541865945E0,9.969455719E0,1.009105532E1
2.276841992E0,2.681505978E-1,1.714248419E0,9.662998199E0,9.817539742E0
2.281877304E0,2.489969730E-1,1.771709204E0,9.442731857E0,9.610730353E0
2.286882101E0,2.777273953E-1,1.829170108E0,9.155426979E0,9.340494578E0
2.291917414E0,2.394201756E-1,1.819593310E0,8.868123055E0,9.056039330E0
2.296952727E0,1.628057212E-1,1.877054095E0,8.676587105E0,8.878795052E0
2.301988039E0,1.532289088E-1,1.829170108E0,8.437167168E0,8.634531383E0
2.307023353E0,1.244984865E-1,1.810016513E0,8.245630264E0,8.442871437E0
2.312028149E0,1.149216816E-1,1.867477298E0,8.197746277E0,8.408550557E0
2.317063462E0,-5.746084079E-2,1.790862918E0,8.092401505E0,8.288392718E0
2.322098774E0,-4.788403213E-2,1.695094824E0,8.092401505E0,8.268167962E0
2.327134088E0,-1.723825186E-1,1.704671621E0,8.073247910E0,8.253057184E0
2.332169400E0,-3.543418646E-1,1.637633920E0,8.121131897E0,8.292176210E0
2.337174197E0,-4.788403511E-1,1.570596337E0,8.303091049E0,8.463886927E0
2.342209509E0,-6.895300746E-1,1.493981838E0,8.350975990E0,8.511535317E0
2.347244823E0,-7.852981687E-1,1.302445769E0,8.523358345E0,8.657984504E0
2.352280135E0,-8.427590132E-1,1.273715258E0,8.772355080E0,8.904313952E0
2.357315449E0,-9.097966552E-1,1.053448796E0,8.906430244E0,9.014542918E0
2.362320244E0,-9.864110947E-1,1.072602391E0,9.097966194E0,9.213928131E0
2.367355558E0,-1.034295082E0,9.289502501E-1,9.203310966E0,9.307719787E0
2.372390870E0,-1.082179189E0,8.427590132E-1,9.289502144E0,9.390218561E0
2.377426184E0,-1.091755986E0,8.619126081E-1,9.452308655E0,9.554107147E0
2.382461496E0,-1.101332784E0,7.852981687E-1,9.471462250E0,9.567561040E0
2.387466293E0,-1.168370485E0,7.565677166E-1,9.691728592E0,9.791173954E0
2.392501605E0,-1.187524080E0,7.565677166E-1,9.797073364E0,9.897739876E0
2.397536919E0,-1.177947283E0,6.991068721E-1,9.835380554E0,9.930308196E0
2.402572231E0,-1.197100878E0,6.607996821E-1,9.911994934E0,1.000586579E1
2.407577027E0,-1.244984865E0,6.320692301E-1,9.979032516E0,1.007623882E1
2.412612340E0,-1.264138460E0,6.033388376E-1,1.003649330E1,1.013376838E1
2.417647654E0,-1.312022567E0,5.458779931E-1,1.017056847E1,1.026936458E1
2.422682966E0,-1.388636947E0,4.309563041E-1,1.043871975E1,1.053949268E1
2.427718279E0,-1.340752959E0,4.884171486E-1,1.050575733E1,1.060222179E1
2.432723075E0,-1.283292055E0,4.501099288E-1,1.063025570E1,1.071689198E1
2.437758388E0,-1.216254473E0,4.118026793E-1,1.063983250E1,1.071703746E1
2.442793701E0,-1.187524080E0,5.363011956E-1,1.063983250E1,1.071932218E1
2.447829014E0,-1.120486379E0,5.937620401E-1,1.046745014E1,1.054398196E1
2.452864327E0,-1.015141487E0,6.799532771E-1,1.034295177E1,1.041486918E1
2.457869123E0,-9.768342972E-1,8.140285611E-1,1.020887566E1,1.028775923E1
2.462904436E0,-8.427590132E-1,9.481038451E-1,9.979032516E0,1.005933565E1
2.467939749E0,-7.948749661E-1,1.091755986E0,9.892841339E0,9.984591484E0
2.472975062E0,-7.278373241E-1,1.235408068E0,9.672574997E0,9.778276297E0
2.477979857E0,-4.979939461E-1,1.388636947E0,9.548076630E0,9.661370393E0
2.483015171E0,-5.075707436E-1,1.522712231E0,9.452308655E0,9.587618031E0
2.488050483E0,-2.394201756E-1,1.608903527E0,9.318233490E0,9.459142031E0
2.493085797E0,-1.915361285E-1,1.723825216E0,9.145850182E0,9.308857879E0
2.498121110E0,-3.830722719E-2,1.867477298E0,9.184157372E0,9.372176136E0
2.503125906E0,8.619125932E-2,2.020706177E0,9.107542992E0,9.329417009E0
2.508161218E0,1.819593310E-1,2.068590164E0,9.145850182E0,9.378632630E0
2.513196532E0,2.298433632E-1,2.068590164E0,9.040505409E0,9.276994734E0
2.518231845E0,2.011129409E-1,2.135627985E0,9.107542992E0,9.356745837E0
2.523236641E0,1.723825186E-1,2.087743998E0,9.021351814E0,9.261381068E0
2.528271953E0,1.340752989E-1,2.164358377E0,8.992621422E0,9.250387203E0
2.533307267E0,5.746084079E-2,2.116474390E0,9.002198219E0,9.247828846E0
2.538342579E0,0.000000000E0,2.068590164E0,8.973467827E0,9.208810461E0
2.543347376E0,-2.681505978E-1,1.953668594E0,8.983044624E0,9.196946039E0
2.548382688E0,-3.543418646E-1,1.810016513E0,8.868123055E0,9.057887416E0
2.553418002E0,-4.884171486E-1,1.752555609E0,8.868123055E0,9.052823260E0
2.558422797E0,-5.841852427E-1,1.666364431E0,8.896853447E0,9.070393821E0
2.563458110E0,-7.757213712E-1,1.570596337E0,8.896853447E0,9.067663302E0
2.568493423E0,-7.948749661E-1,1.503558636E0,8.839392662E0,9.001520839E0
2.573528737E0,-8.906430602E-1,1.398213744E0,8.973467827E0,9.125314875E0
2.578533532E0,-9.576807022E-1,1.369483352E0,8.954314232E0,9.108917627E0
2.583568845E0,-1.034295082E0,1.235408068E0,8.973467827E0,9.116969028E0
2.588604158E0,-1.149216771E0,1.225831270E0,8.963891029E0,9.120016660E0
2.593639472E0,-1.216254473E0,1.187524080E0,9.040505409E0,9.198925287E0
2.598644267E0,-1.225831270E0,1.130063176E0,9.155426979E0,9.305995286E0
2.603679580E0,-1.206677675E0,1.082179189E0,9.366117477E0,9.505332157E0
2.608714893E0,-1.321599364E0,1.024718285E0,9.519346237E0,9.665124170E0
2.613750206E0,-1.273715258E0,1.043871999E0,9.538499832E0,9.679617676E0
2.618755002E0,-1.264138460E0,1.063025594E0,9.672574997E0,9.812582562E0
2.623790315E0,-1.312022567E0,1.005564690E0,9.797073364E0,9.935552831E0
2.628825628E0,-1.283292055E0,9.864110947E-1,9.921571732E0,1.005273251E1
2.633860941E0,-1.206677675E0,1.024718285E0,9.979032516E0,1.010382148E1
2.638896254E0,-1.225831270E0,1.072602391E0,1.007480049E1,1.020562311E1
2.643901050E0,-1.235408068E0,1.101332784E0,1.011310768E1,1.024763943E1
2.648936363E0,-1.254561663E0,1.187524080E0,1.017056847E1,1.031623000E1
2.653971676E0,-1.177947283E0,1.168370485E0,1.016099167E1,1.029555249E1
2.659006989E0,-1.187524080E0,1.312022567E0,1.013226128E1,1.028563733E1
2.664011785E0,-1.101332784E0,1.493981838E0,1.035252857E1,1.051759305E1
2.669047098E0,-1.034295082E0,1.513135433E0,1.028549004E1,1.044751887E1
2.674082411E0,-9.864110947E-1,1.704671621E0,1.040998936E1,1.059465859E1
2.679117724E0,-9.193734527E-1,1.800439715E0,1.028549004E1,1.048227723E1
2.684122520E0,-7.565677166E-1,1.953668594E0,1.030464458E1,1.051546079E1
2.689157832E0,-7.182605267E-1,1.991975784E0,1.029506683E1,1.051057880E1
2.694193146E0,-6.129156351E-1,2.049436569E0,1.026633644E1,1.048682601E1
2.699228459E0,-4.788403511E-1,2.202665567E0,1.028549004E1,1.052959301E1
2.704233255E0,-4.213795066E-1,2.308010340E0,1.028549004E1,1.054968140E1
2.709268567E0,-4.022258818E-1,2.442085743E0,1.033337498E1,1.062563913E1
2.714303880E0,-3.351882398E-1,2.451662540E0,1.029506683E1,1.058826716E1
2.719339193E0,-2.202665508E-1,2.442085743E0,1.037168217E1,1.065758374E1
2.724343990E0,-2.681505978E-1,2.432508945E0,1.037168217E1,1.065649077E1
2.729379302E0,-2.681505978E-1,2.375048161E0,1.034295177E1,1.061552683E1
2.734414615E0,-2.394201756E-1,2.336740971E0,1.024718285E1,1.051296517E1
2.739449928E0,-3.351882398E-1,2.260126352E0,1.022802925E1,1.048012904E1
2.744454725E0,-4.022258818E-1,2.250549555E0,1.030464458E1,1.055521004E1
2.749490037E0,-5.267243981E-1,2.193088770E0,1.024718285E1,1.049246555E1
2.754525350E0,-5.554547906E-1,2.183511972E0,1.013226128E1,1.037973859E1
2.759560663E0,-6.607996821E-1,2.059013367E0,1.008437729E1,1.031362485E1
2.764565459E0,-7.661445141E-1,2.087743998E0,1.007480049E1,1.031732801E1
2.769600772E0,-8.236053586E-1,1.896207690E0,1.007480049E1,1.028472335E1
2.774636085E0,-9.481038451E-1,1.867477298E0,9.959878922E0,1.017769917E1
2.779671398E0,-8.810662031E-1,1.723825216E0,9.911994934E0,1.009928189E1
2.784676194E0,-9.481038451E-1,1.695094824E0,9.864110947E0,1.005350348E1
2.789711507E0,-1.091755986E0,1.714248419E0,9.883264542E0,1.009006922E1
2.794746819E0,-1.177947283E0,1.666364431E0,9.825803757E0,1.003547456E1
2.799782133E0,-1.187524080E0,1.675941229E0,9.844957352E0,1.005694674E1
2.804817446E0,-1.177947283E0,1.714248419E0,9.758766174E0,9.977961951E0
2.809822242E0,-1.130063176E0,1.647210717E0,9.653421402E0,9.857935417E0
2.814857554E0,-1.063025594E0,1.580173135E0,9.538499832E0,9.726764601E0
2.819892868E0,-1.063025594E0,1.608903527E0,9.337387085E0,9.534431894E0
2.824928181E0,-9.576807022E-1,1.589749932E0,9.088389397E0,9.275951649E0
2.829932977E0,-8.810662031E-1,1.551442742E0,9.002198219E0,9.177299440E0
2.834968289E0,-8.140285611E-1,1.618480325E0,8.925583839E0,9.107588481E0
2.840003603E0,-8.236053586E-1,1.474828243E0,9.126696587E0,9.281704300E0
2.845038915E0,-7.565677166E-1,1.484405041E0,9.452308655E0,9.598020209E0
2.850043712E0,-7.374141216E-1,1.369483352E0,9.883264542E0,1.000490791E1
2.855079024E0,-7.661445141E-1,1.436521053E0,1.013226128E1,1.026222630E1
2.860114338E0,-8.619126081E-1,1.379060149E0,1.071644688E1,1.083913898E1
2.865149650E0,-8.810662031E-1,1.177947283E0,1.104205799E1,1.113960871E1
2.870154446E0,-9.959878922E-1,1.053448796E0,1.138682365E1,1.147874118E1
2.875189759E0,-1.082179189E0,7.374141216E-1,1.173158836E1,1.180445072E1
2.880225073E0,-1.206677675E0,4.596867263E-1,1.199016190E1,1.205949274E1
2.885260385E0,-1.379060149E0,1.915361285E-1,1.227746677E1,1.235615973E1
2.890265181E0,-1.618480325E0,-8.619125932E-2,1.256477070E1,1.266887407E1
2.895300494E0,-1.924938202E0,-3.926490843E-1,1.265096188E1,1.280259336E1
2.900335808E0,-1.991975784E0,-6.799532771E-1,1.285207462E1,1.302329168E1
2.905371120E0,-2.231395960E0,-8.523358107E-1,1.275630665E1,1.297801848E1
2.910375916E0,-2.355894566E0,-1.072602391E0,1.268926907E1,1.295060865E1
2.915411229E0,-2.461239338E0,-1.110909581E0,1.247857952E1,1.276741031E1
2.920446542E0,-2.557007313E0,-1.120486379E0,1.204762268E1,1.236685038E1
2.925481855E0,-2.489969730E0,-1.034295082E0,1.151132202E1,1.182286980E1
2.930486651E0,-2.422932148E0,-8.906430602E-1,1.079306126E1,1.109747794E1
2.935521964E0,-2.384624958E0,-6.895300746E-1,1.018014526E1,1.047841808E1
2.940557277E0,-2.135627985E0,-3.734954596E-1,9.567230225E0,9.809806314E0
2.945592590E0,-2.030282974E0,-9.576806426E-2,8.906430244E0,9.135410236E0
2.950627903E0,-1.733402014E0,2.681505978E-1,8.494627953E0,8.673827952E0
2.955632699E0,-1.695094824E0,4.405331016E-1,7.910442352E0,8.102006794E0
2.960668012E0,-1.532289028E0,7.948749661E-1,7.517793179E0,7.713426616E0
2.965703325E0,-1.225831270E0,9.672574997E-1,7.134721279E0,7.303594807E0
2.970738637E0,-1.053448796E0,1.158793569E0,6.971915245E0,7.145639166E0
2.975743434E0,-8.044517636E-1,1.283292055E0,6.933608055E0,7.097105170E0
2.980778747E0,-6.512228847E-1,1.465251446E0,6.952761650E0,7.135260865E0
2.985814060E0,-3.256114423E-1,1.561019540E0,7.249642849E0,7.422945928E0
2.990849372E0,-8.619125932E-2,1.541865945E0,7.584830761E0,7.740441667E0
2.995884686E0,2.489969730E-1,1.628057122E0,8.034940720E0,8.202002308E0
3.000889482E0,4.309563041E-1,1.599326730E0,8.513781548E0,8.673410261E0
3.005924795E0,6.129156351E-1,1.551442742E0,8.877699852E0,9.033061210E0
3.010960107E0,8.140285611E-1,1.532289028E0,9.404424667E0,9.563145690E0
3.015995421E0,8.236053586E-1,1.446097851E0,9.940725327E0,1.007906468E1
3.021000217E0,9.385270476E-1,1.292868972E0,1.048660374E1,1.060760110E1
3.026035530E0,1.082179189E0,1.005564690E0,1.074517727E1,1.084624851E1
3.031070842E0,1.149216771E0,8.236053586E-1,1.110909557E1,1.119870660E1
3.036106156E0,1.120486379E0,5.841852427E-1,1.138682365E1,1.145672357E1
3.041141468E0,9.768342972E-1,2.298433632E-1,1.159751320E1,1.164084815E1
3.046146264E0,8.236053586E-1,-3.830722719E-2,1.172201157E1,1.175097223E1
3.051181577E0,7.469909191E-1,-2.394201756E-1,1.172201157E1,1.174822849E1
3.056216891E0,5.458779931E-1,-4.213795066E-1,1.166455078E1,1.168491713E1
3.061252203E0,2.873041928E-1,-5.650315881E-1,1.148259163E1,1.150007456E1
3.066256999E0,1.149216816E-1,-7.086837292E-1,1.139640045E1,1.141899220E1
3.071292312E0,-7.661445439E-2,-7.661445141E-1,1.103248119E1,1.105931682E1
3.076327625E0,-2.298433632E-1,-9.002198577E-1,1.081221485E1,1.085206035E1
3.081362938E0,-3.351882398E-1,-9.385270476E-1,1.049618053E1,1.054338608E1
3.086398252E0,-3.256114423E-1,-1.043871999E0,1.041956615E1,1.047678626E1
3.091403047E0,-4.405331016E-1,-1.082179189E0,9.998186111E0,1.006622604E1
3.096438360E0,-3.351882398E-1,-1.235408068E0,9.730035782E0,9.813876939E0
3.101473673E0,-4.022258818E-1,-1.283292055E0,9.423578262E0,9.519057276E0
3.106508987E0,-5.171475410E-1,-1.388636947E0,9.107542992E0,9.227301528E0
3.111513782E0,-5.650315881E-1,-1.388636947E0,8.858546257E0,8.984509728E0
3.116549095E0,-6.895300746E-1,-1.340752959E0,8.695740700E0,8.825473162E0
3.121584408E0,-6.799532771E-1,-1.398213744E0,8.590395927E0,8.729962218E0
3.126619721E0,-6.991068721E-1,-1.331176162E0,8.590395927E0,8.720990917E0
3.131655034E0,-6.799532771E-1,-1.254561663E0,8.599972725E0,8.717556555E0
3.136659830E0,-7.852981687E-1,-1.292868972E0,8.820239067E0,8.949012269E0
3.141695143E0,-5.746083856E-1,-1.312022567E0,9.088389397E0,9.200565191E0
3.146730456E0,-4.213795066E-1,-1.177947283E0,9.375694275E0,9.458792926E0
3.151765769E0,-2.011129409E-1,-1.072602391E0,9.595960617E0,9.657814580E0
3.156801082E0,-9.576806799E-3,-9.768342972E-1,9.672574997E0,9.721779880E0
3.161805878E0,1.149216816E-1,-8.619126081E-1,9.758766174E0,9.797429131E0
3.166841191E0,1.628057212E-1,-6.416460276E-1,9.825803757E0,9.848077721E0
3.171876504E0,4.979939461E-1,-4.596867263E-1,9.605537415E0,9.629416331E0
3.176911816E0,6.224924326E-1,-1.723825186E-1,9.404424667E0,9.426580286E0
3.181916613E0,7.757213712E-1,5.746084079E-2,9.279925346E0,9.312467977E0
3.186951925E0,7.757213712E-1,2.681505978E-1,9.088389397E0,9.125375073E0
3.191987239E0,8.140285611E-1,4.788403511E-1,9.011775017E0,9.061126836E0
3.196992035E0,8.523358107E-1,6.320692301E-1,8.935160637E0,8.997948847E0
3.202027347E0,8.906430602E-1,7.278373241E-1,8.848969460E0,8.923410375E0
3.207062660E0,9.097966552E-1,9.193734527E-1,8.734047890E0,8.829301787E0
3.212097974E0,9.193734527E-1,1.034295082E0,8.695740700E0,8.805164404E0
3.217102770E0,9.002198577E-1,1.082179189E0,8.667010307E0,8.780579437E0
3.222138082E0,7.948749661E-1,1.139639974E0,8.753201485E0,8.862795367E0
3.227173395E0,7.948749661E-1,1.110909581E0,8.619126320E0,8.726699538E0
3.232208709E0,6.224924326E-1,1.082179189E0,8.705317497E0,8.794382375E0
3.237213505E0,4.596867263E-1,9.193734527E-1,8.743624687E0,8.803836215E0
3.242248817E0,3.447650373E-1,8.523358107E-1,8.791508675E0,8.839454963E0
3.247284130E0,2.298433632E-1,8.140285611E-1,8.801085472E0,8.841638760E0
3.252319443E0,8.619125932E-2,7.661445141E-1,8.973467827E0,9.006527144E0
3.257324240E0,1.915361360E-2,7.086837292E-1,9.222464561E0,9.249673079E0
3.262359552E0,-7.661445439E-2,5.458779931E-1,9.270348549E0,9.286722499E0
3.267394865E0,-3.830722719E-2,4.979939461E-1,9.490615845E0,9.503749498E0
3.272430178E0,-7.661445439E-2,4.022258818E-1,9.528923035E0,9.537716165E0
3.277465491E0,-2.202665508E-1,2.968810201E-1,9.461885452E0,9.469104076E0
3.282470287E0,-2.968810201E-1,2.873041928E-1,9.404424667E0,9.413494854E0
3.287505600E0,-3.734954596E-1,2.489969730E-1,9.366117477E0,9.376868078E0
3.292540913E0,-4.596867263E-1,2.968810201E-1,9.251194954E0,9.267365230E0
3.297576226E0,-4.405331016E-1,2.968810201E-1,9.212887764E0,9.228190977E0
3.302581022E0,-4.213795066E-1,2.394201756E-1,9.107542992E0,9.120428831E0
3.307616334E0,-4.405331016E-1,2.968810201E-1,9.011775017E0,9.027419161E0
3.312651648E0,-4.405331016E-1,4.596867263E-1,9.021351814E0,9.043791785E0
3.317686961E0,-3.064578176E-1,5.267243981E-1,9.117119789E0,9.137462899E0
3.322722274E0,-3.160346150E-1,5.746083856E-1,9.145850182E0,9.169330849E0
3.327727069E0,-2.585737705E-1,6.512228847E-1,9.260771751E0,9.287240983E0
3.332762383E0,-2.394201756E-1,6.991068721E-1,9.299078941E0,9.328394374E0
3.337797696E0,-1.628057212E-1,6.895300746E-1,9.519346237E0,9.545674948E0
3.342833009E0,-1.532289088E-1,7.278373241E-1,9.519346237E0,9.548360019E0
3.347837804E0,-7.661445439E-2,8.044517636E-1,9.710882187E0,9.744446894E0
3.352873118E0,-1.340752989E-1,8.906430602E-1,9.864110947E0,9.905145431E0
3.357908430E0,9.576806799E-3,9.289502501E-1,9.892841339E0,9.936365032E0
3.362943744E0,-7.661445439E-2,9.481038451E-1,1.003649330E1,1.008146658E1
3.367979057E0,-9.576806426E-2,9.097966552E-1,1.003649330E1,1.007809998E1
3.372983853E0,-2.873042040E-2,9.576807022E-1,1.026633644E1,1.031094766E1
3.378019165E0,0.000000000E0,9.481038451E-1,1.025675964E1,1.030048636E1
3.383054479E0,3.830722719E-2,9.289502501E-1,1.030464458E1,1.034650260E1
3.388089792E0,4.788403213E-2,9.193734527E-1,1.037168217E1,1.041246039E1
3.393125104E0,8.619125932E-2,9.768342972E-1,1.042914295E1,1.047514472E1
3.398129900E0,1.149216816E-1,9.768342972E-1,1.043871975E1,1.048495504E1
3.403165214E0,1.149216816E-1,1.015141487E0,1.041956615E1,1.046953094E1
3.408200526E0,1.819593310E-1,9.768342972E-1,1.036210537E1,1.040963698E1
3.413235839E0,1.340752989E-1,9.864110947E-1,1.032379818E1,1.037168221E1
3.418271153E0,1.532289088E-1,9.864110947E-1,1.029506683E1,1.034334990E1
3.423275948E0,9.576806426E-2,1.015141487E0,1.029506683E1,1.034543788E1
3.428311261E0,3.830722719E-2,9.864110947E-1,1.013226128E1,1.018023540E1
3.433346574E0,-3.830722719E-2,9.289502501E-1,1.006522369E1,1.010807321E1
3.438381888E0,-1.436520964E-1,9.289502501E-1,9.998186111E0,1.004227614E1
3.443417200E0,-1.436520964E-1,9.002198577E-1,1.000776291E1,1.004919649E1
3.448421996E0,-1.628057212E-1,8.523358107E-1,9.892841339E0,9.930825333E0
3.453457309E0,-2.202665508E-1,8.619126081E-1,9.864110947E0,9.904145368E0
3.458492622E0,-2.585737705E-1,8.523358107E-1,9.911994934E0,9.951933496E0
3.463527935E0,-3.256114423E-1,7.565677166E-1,9.883264542E0,9.917526684E0
3.468532731E0,-3.447650373E-1,8.044517636E-1,1.004607010E1,1.008412267E1
3.473568044E0,-3.256114423E-1,6.991068721E-1,1.002691650E1,1.005653160E1
3.478603357E0,-4.501099288E-1,7.469909191E-1,1.009395409E1,1.013155978E1
3.483638670E0,-4.979939461E-1,7.182605267E-1,1.019929886E1,1.023667882E1
3.488643466E0,-5.267243981E-1,6.512228847E-1,1.017056847E1,1.020499842E1
3.493678779E0,-6.033388376E-1,5.746083856E-1,1.010353088E1,1.013782663E1
3.498714092E0,-5.363011956E-1,6.416460276E-1,1.007480049E1,1.010944774E1
3.503749405E0,-5.458779931E-1,6.033388376E-1,1.004607010E1,1.007896448E1
3.508784717E0,-6.033388376E-1,6.129156351E-1,1.000776291E1,1.004465041E1
3.513789514E0,-5.554547906E-1,4.979939461E-1,9.768342972E0,9.796787862E0
3.518824827E0,-5.841852427E-1,6.033388376E-1,9.576807022E0,9.613559325E0
3.523860140E0,-6.991068721E-1,6.416460276E-1,9.404424667E0,9.452177705E0
3.528895452E0,-6.416460276E-1,6.895300746E-1,9.337387085E0,9.384772716E0
3.533930766E0,-6.129156351E-1,7.565677166E-1,9.155426979E0,9.207057264E0
3.538935562E0,-6.224924326E-1,9.097966552E-1,8.906430244E0,8.974392820E0
3.543970875E0,-6.416460276E-1,9.672574997E-1,8.734047890E0,8.810839304E0
3.549006187E0,-6.895300746E-1,1.130063176E0,8.523358345E0,8.625551112E0
3.554041501E0,-6.799532771E-1,1.197100878E0,8.303091049E0,8.416454595E0
3.559076813E0,-6.895300746E-1,1.254561663E0,8.255207062E0,8.378413950E0
3.564081609E0,-7.086837292E-1,1.359906554E0,8.236053467E0,8.377598413E0
3.569116922E0,-5.841852427E-1,1.484405041E0,8.121131897E0,8.276322493E0
3.574152236E0,-5.267243981E-1,1.493981838E0,8.197746277E0,8.349399041E0
3.579187548E0,-4.405331016E-1,1.589749932E0,8.245630264E0,8.409030427E0
3.584192344E0,-4.309563041E-1,1.608903527E0,8.561665535E0,8.722179236E0
3.589227657E0,-4.501099288E-1,1.618480325E0,8.877699852E0,9.035243891E0
3.594262971E0,-4.118026793E-1,1.522712231E0,9.241618156E0,9.375272803E0
3.599298283E0,-3.543418646E-1,1.541865945E0,9.624691010E0,9.753849793E0
3.604333597E0,-3.543418646E-1,1.541865945E0,9.854534149E0,9.980719014E0
3.609338392E0,-4.309563041E-1,1.417367458E0,1.001733971E1,1.012628997E1
3.614373705E0,-4.788403511E-1,1.369483352E0,1.034295177E1,1.044420529E1
3.619409018E0,-6.129156351E-1,1.110909581E0,1.036210537E1,1.043949296E1
3.624444331E0,-7.086837292E-1,1.082179189E0,1.056321812E1,1.064212955E1
3.629449127E0,-7.469909191E-1,9.097966552E-1,1.070687008E1,1.077138767E1
3.634484440E0,-8.906430602E-1,8.810662031E-1,1.080263805E1,1.087504076E1
3.639519753E0,-8.810662031E-1,7.374141216E-1,1.078348446E1,1.084451909E1
3.644555066E0,-9.385270476E-1,6.991068721E-1,1.071644688E1,1.078015849E1
3.649590379E0,-9.768342972E-1,5.937620401E-1,1.078348446E1,1.084390592E1
3.654595175E0,-1.082179189E0,5.363011956E-1,1.061110210E1,1.067961697E1
3.659630488E0,-1.149216771E0,3.926490843E-1,1.049618053E1,1.056620454E1
3.664665800E0,-1.312022567E0,4.596867263E-1,1.042914295E1,1.052139429E1
3.669701114E0,-1.302445769E0,4.501099288E-1,1.030464458E1,1.039637744E1
3.674736427E0,-1.312022567E0,4.979939461E-1,1.018014526E1,1.027641760E1
3.679741223E0,-1.235408068E0,6.129156351E-1,1.006522369E1,1.015926310E1
3.684776535E0,-1.216254473E0,7.565677166E-1,1.001733971E1,1.011922746E1
3.689811849E0,-1.110909581E0,8.714894056E-1,9.883264542E0,9.983613168E0
3.694847161E0,-1.053448796E0,9.289502501E-1,9.950302124E0,1.004894100E1
3.699882475E0,-9.481038451E-1,1.034295082E0,9.988609314E0,1.008667355E1
3.704887270E0,-9.002198577E-1,1.168370485E0,9.931148529E0,1.004007951E1
3.709922584E0,-9.672574997E-1,1.283292055E0,1.005564690E1,1.018324408E1
3.714957896E0,-8.236053586E-1,1.465251446E0,1.025675964E1,1.039357523E1
3.719993210E0,-8.619126081E-1,1.695094824E0,1.036210537E1,1.053515389E1
3.724998005E0,-6.799532771E-1,1.723825216E0,1.046745014E1,1.063021271E1
3.730033319E0,-7.565677166E-1,1.771709204E0,1.052491093E1,1.069977094E1
3.735068631E0,-8.044517636E-1,1.838746905E0,1.063983250E1,1.082747285E1
3.740103945E0,-7.948749661E-1,1.886630893E0,1.071644688E1,1.091024454E1
3.745139257E0,-8.619126081E-1,1.896207690E0,1.086009884E1,1.105803978E1
3.750174570E0,-8.810662031E-1,1.896207690E0,1.084094524E1,1.104074160E1
3.755179366E0,-8.236053586E-1,1.934514999E0,1.090798283E1,1.110876966E1
3.760214680E0,-8.236053586E-1,1.982398987E0,1.082179165E1,1.103265181E1
3.765249992E0,-8.714894056E-1,1.953668594E0,1.085052204E1,1.105939163E1
3.770285305E0,-8.331822157E-1,2.030282974E0,1.083136845E1,1.105146072E1
3.775290101E0,-8.523358107E-1,2.135627985E0,1.064940929E1,1.089482912E1
3.780325415E0,-8.427590132E-1,2.154781580E0,1.040998936E1,1.066401448E1
3.785360727E0,-8.619126081E-1,2.145204782E0,1.017056847E1,1.043001725E1
3.790396040E0,-8.236053586E-1,2.173935175E0,9.911994934E0,1.018096083E1
3.795431353E0,-7.565677166E-1,2.212242365E0,9.691728592E0,9.969754966E0
3.800436150E0,-7.278373241E-1,2.298433542E0,9.490615845E0,9.792054587E0
3.805471462E0,-7.182605267E-1,2.384624958E0,9.289502144E0,9.617545657E0
3.810506775E0,-5.650315881E-1,2.461239338E0,8.992621422E0,9.340460364E0
3.815542088E0,-6.129156351E-1,2.489969730E0,8.887276649E0,9.249827084E0
3.820577401E0,-5.650315881E-1,2.557007313E0,8.619126320E0,9.008156616E0
3.825582197E0,-5.746083856E-1,2.518700123E0,8.561665535E0,8.942938099E0
3.830617510E0,-6.799532771E-1,2.480392933E0,8.350975990E0,8.738048155E0
3.835652823E0,-7.278373241E-1,2.365471363E0,8.312667847E0,8.673272086E0
3.840688136E0,-7.182605267E-1,2.288856745E0,8.350975990E0,8.688703204E0
3.845723448E0,-7.948749661E-1,2.202665567E0,8.197746277E0,8.525644013E0
3.850728245E0,-7.948749661E-1,2.126051188E0,8.197746277E0,8.506172105E0
3.855763558E0,-8.427590132E-1,1.953668594E0,8.322244644E0,8.589925474E0
3.860798871E0,-8.427590132E-1,1.857900500E0,8.389283180E0,8.633777233E0
3.865834183E0,-8.044517636E-1,1.771709204E0,8.781931877E0,8.994910986E0
3.870838979E0,-6.224924326E-1,1.666364431E0,8.868123055E0,9.044770520E0
3.875874293E0,-6.799532771E-1,1.561019540E0,9.050082207E0,9.208860212E0
3.880909606E0,-6.416460276E-1,1.541865945E0,9.117119789E0,9.268815106E0
3.885944918E0,-6.895300746E-1,1.561019540E0,9.433155060E0,9.586273943E0
3.890980232E0,-6.703764796E-1,1.618480325E0,9.624691010E0,9.782819645E0
3.895985028E0,-6.512228847E-1,1.647210717E0,9.672574997E0,9.833417588E0
3.901020341E0,-6.799532771E-1,1.618480325E0,9.816226959E0,9.971967044E0
3.906055653E0,-6.991068721E-1,1.666364431E0,9.844957352E0,1.000943086E1
3.911090967E0,-6.607996821E-1,1.628057122E0,9.988609314E0,1.014196935E1
3.916126279E0,-6.895300746E-1,1.752555609E0,9.921571732E0,1.009873698E1
3.921131075E0,-7.469909191E-1,1.810016513E0,9.883264542E0,1.007536963E1
3.926166388E0,-6.799532771E-1,1.857900500E0,9.825803757E0,1.002300106E1
3.931201702E0,-7.565677166E-1,1.838746905E0,9.682151794E0,9.884201954E0
3.936237014E0,-6.895300746E-1,2.011129379E0,9.452308655E0,9.688458701E0
3.941272328E0,-7.374141216E-1,2.068590164E0,9.222464561E0,9.480332138E0
3.946277123E0,-8.140285611E-1,2.068590164E0,9.088389397E0,9.356309614E0
3.951312436E0,-7.182605267E-1,2.106897593E0,9.002198219E0,9.273321327E0
3.956347749E0,-6.895300746E-1,2.011129379E0,9.059659004E0,9.305778548E0
3.961383063E0,-6.129156351E-1,1.953668594E0,9.069235802E0,9.297500986E0
3.966387858E0,-4.501099288E-1,2.049436569E0,9.356540680E0,9.588933345E0
3.971423171E0,-4.501099288E-1,1.896207690E0,9.653421402E0,9.848184976E0
3.976458484E0,-3.256114423E-1,1.762132406E0,9.931148529E0,1.009152340E1
3.981493798E0,-2.873041928E-1,1.628057122E0,1.033337498E1,1.046478629E1
3.986529110E0,-4.405331016E-1,1.493981838E0,1.070687008E1,1.081957107E1
3.991533906E0,-4.596867263E-1,1.407790542E0,1.116655636E1,1.126433163E1
3.996569219E0,-4.405331016E-1,1.187524080E0,1.167412758E1,1.174263759E1
4.001604532E0,-4.022258818E-1,1.072602391E0,1.217212105E1,1.222590661E1
4.006639845E0,-3.447650373E-1,8.523358107E-1,1.262223148E1,1.265567331E1
4.011675158E0,-3.064578176E-1,6.033388376E-1,1.302445698E1,1.304202491E1
4.016679954E0,-2.585737705E-1,4.309563041E-1,1.334049225E1,1.334995570E1
4.021715267E0,-2.298433632E-1,1.628057212E-1,1.332133865E1,1.332431601E1
4.026750580E0,-3.160346150E-1,1.915361360E-2,1.341710663E1,1.342084181E1
4.031785893E0,-2.777273953E-1,-1.915361285E-1,1.337879944E1,1.338305245E1
4.036821206E0,-3.064578176E-1,-2.298433632E-1,1.315853214E1,1.316410698E1
4.041826002E0,-3.256114423E-1,-2.106897533E-1,1.277546024E1,1.278134568E1
4.046861315E0,-4.118026793E-1,-6.703764945E-2,1.220085144E1,1.220798310E1
4.051896627E0,-4.692635238E-1,9.576806426E-2,1.171243477E1,1.172222283E1
4.056931941E0,-3.926490843E-1,4.118026793E-1,1.122401714E1,1.123843030E1
4.061967254E0,-3.064578176E-1,6.224924326E-1,1.081221485E1,1.083445445E1
4.066972050E0,-2.011129409E-1,8.906430602E-1,1.027591324E1,1.031639881E1
4.072007362E0,-1.915361285E-1,1.110909581E0,9.854534149E0,9.918802825E0
4.077042676E0,-1.244984865E-1,1.474828243E0,9.519346237E0,9.633720517E0
4.082077988E0,-9.576806799E-3,1.790862918E0,9.107542992E0,9.281951360E0
4.087082785E0,0.000000000E0,2.039859772E0,8.858546257E0,9.090372362E0
4.092118097E0,2.011129409E-1,2.298433542E0,8.628703117E0,8.931839713E0
4.097153411E0,2.394201756E-1,2.489969730E0,8.532935143E0,8.892033143E0
4.102188723E0,3.543418646E-1,2.585737944E0,8.437167168E0,8.831613029E0
4.107224036E0,5.458779931E-1,2.691082716E0,8.437167168E0,8.872750351E0
4.112228832E0,4.979939461E-1,2.547430515E0,8.446743965E0,8.836565159E0
4.117264146E0,5.363011956E-1,2.566584110E0,8.542511940E0,8.935853804E0
4.122299458E0,4.979939461E-1,2.355894566E0,8.542511940E0,8.875401254E0
4.127334771E0,3.926490843E-1,2.164358377E0,8.647856712E0,8.923230705E0
4.132370084E0,3.064578176E-1,1.991975784E0,8.705317497E0,8.935571423E0
4.137374881E0,2.777273953E-1,1.733402014E0,8.906430244E0,9.077792394E0
4.142410193E0,1.819593310E-1,1.426944256E0,8.916007042E0,9.031304484E0
4.147445506E0,4.788403213E-2,1.177947283E0,8.973467827E0,9.050578850E0
4.152480819E0,-6.703764945E-2,1.043871999E0,9.078812599E0,9.138873071E0
4.157516132E0,-1.436520964E-1,8.427590132E-1,9.097966194E0,9.138045062E0
4.162520928E0,-2.106897533E-1,7.086837292E-1,9.165003777E0,9.194776616E0
4.167556241E0,-3.734954596E-1,5.363011956E-1,9.088389397E0,9.111857092E0
4.172591554E0,-4.309563041E-1,3.830722570E-1,9.050082207E0,9.068431818E0
4.177626867E0,-5.937620401E-1,2.202665508E-1,8.944737434E0,8.967128776E0
4.182662180E0,-7.374141216E-1,-9.576806799E-3,8.868123055E0,8.898734619E0
4.187666976E0,-8.619126081E-1,-1.532289088E-1,8.820239067E0,8.863576572E0
4.192702289E0,-1.015141487E0,-3.064578176E-1,8.781931877E0,8.845719650E0
4.197737602E0,-1.110909581E0,-4.884171486E-1,8.695740700E0,8.780010121E0
4.202772915E0,-1.225831270E0,-6.607996821E-1,8.504204750E0,8.617471610E0
4.207777710E0,-1.350329757E0,-7.469909191E-1,8.532935143E0,8.671353299E0
4.212813024E0,-1.417367458E0,-9.193734527E-1,8.504204750E0,8.670390792E0
4.217848337E0,-1.541865945E0,-9.576807022E-1,8.552088737E0,8.742581123E0
4.222883650E0,-1.570596337E0,-1.082179189E0,8.437167168E0,8.650067888E0
4.227918963E0,-1.647210717E0,-1.206677675E0,8.513781548E0,8.755218467E0
4.232923759E0,-1.704671621E0,-1.168370485E0,8.532935143E0,8.779634222E0
4.237959072E0,-1.656787634E0,-1.168370485E0,8.542511940E0,8.779780470E0
4.242994385E0,-1.522712231E0,-1.177947283E0,8.619126320E0,8.831508980E0
4.248029698E0,-1.417367458E0,-1.139639974E0,8.542511940E0,8.733969317E0
4.253065010E0,-1.503558636E0,-1.101332784E0,8.686163902E0,8.883865477E0
4.258069806E0,-1.340752959E0,-1.082179189E0,8.695740700E0,8.864797607E0
4.263105119E0,-1.264138460E0,-1.072602391E0,8.772355080E0,8.927638858E0
4.268140433E0,-1.216254473E0,-9.193734527E-1,8.877699852E0,9.007667686E0
4.273175745E0,-1.130063176E0,-8.906430602E-1,9.097966194E0,9.211041022E0
4.278180541E0,-1.072602391E0,-8.331822157E-1,9.260771751E0,9.359837708E0
4.283215854E0,-9.768342972E-1,-7.182605267E-1,9.279925346E0,9.358798954E0
4.288251168E0,-1.005564690E0,-7.182605267E-1,9.414001465E0,9.494760772E0
4.293286480E0,-9.672574997E-1,-6.991068721E-1,9.586383820E0,9.660387789E0
4.298321794E0,-8.427590132E-1,-5.746083856E-1,9.691728592E0,9.745256315E0
4.303326589E0,-9.768342972E-1,-5.746083856E-1,9.854534149E0,9.919487050E0
4.308361902E0,-9.576807022E-1,-4.788403511E-1,9.979032516E0,1.003631060E1
4.313397215E0,-9.576807022E-1,-4.118026793E-1,1.002691650E1,1.008096168E1
4.318432529E0,-9.193734527E-1,-3.160346150E-1,1.009395409E1,1.014066243E1
4.323467841E0,-8.523358107E-1,-2.106897533E-1,1.016099167E1,1.019885377E1
4.328472637E0,-7.757213712E-1,-8.619125932E-2,1.020887566E1,1.023866763E1
4.333507950E0,-7.852981687E-1,2.873042040E-2,1.026633644E1,1.029636745E1
4.338543263E0,-7.374141216E-1,1.244984865E-1,1.036210537E1,1.038905709E1
4.343578576E0,-6.895300746E-1,3.160346150E-1,1.054406452E1,1.057131147E1
4.348613889E0,-5.841852427E-1,4.213795066E-1,1.049618053E1,1.052086683E1
4.353618685E0,-5.458779931E-1,5.267243981E-1,1.052491093E1,1.055221168E1
4.358653998E0,-4.309563041E-1,7.086837292E-1,1.058237171E1,1.061482675E1
4.363689311E0,-4.309563041E-1,8.619126081E-1,1.063983250E1,1.068338206E1
4.368724624E0,-3.351882398E-1,1.091755986E0,1.056321812E1,1.062477573E1
4.373759937E0,-3.734954596E-1,1.264138460E0,1.040998936E1,1.049311314E1
4.378764733E0,-2.489969730E-1,1.465251446E0,1.032379818E1,1.043023347E1
4.383800046E0,-1.149216816E-1,1.723825216E0,1.009395409E1,1.024073676E1
4.388835358E0,1.244984865E-1,1.972822189E0,9.950302124E0,1.014475429E1
4.393870672E0,3.830722570E-1,2.269703150E0,9.873687744E0,1.013844201E1
4.398875468E0,6.320692301E-1,2.518700123E0,1.010353088E1,1.043190769E1
4.403910781E0,7.182605267E-1,2.643198729E0,1.023760605E1,1.059768726E1
4.408946093E0,7.948749661E-1,2.815581083E0,1.032379818E1,1.073033699E1
4.413981407E0,9.002198577E-1,2.873042107E0,1.027591324E1,1.070790174E1
4.419016720E0,1.015141487E0,2.940079689E0,1.018014526E1,1.064471411E1
4.424021516E0,9.768342972E-1,2.863465309E0,1.004607010E1,1.049176645E1
4.429056828E0,9.959878922E-1,2.853888512E0,9.816226959E0,1.027107508E1
4.434092142E0,8.140285611E-1,2.844311714E0,9.586383820E0,1.003252243E1
4.439127454E0,7.182605267E-1,2.825158119E0,9.251194954E0,9.699588891E0
4.444162768E0,6.607996821E-1,2.662352324E0,9.222464561E0,9.621778874E0
4.449167563E0,4.309563041E-1,2.710236311E0,9.021351814E0,9.429522403E0
4.454202877E0,3.447650373E-1,2.585737944E0,8.868123055E0,9.243836333E0
4.459238189E0,1.819593310E-1,2.422932148E0,8.753201485E0,9.084175561E0
4.464273502E0,4.788403213E-2,2.336740971E0,8.695740700E0,9.004363251E0
4.469278298E0,-1.436520964E-1,2.183511972E0,8.724471092E0,8.994707127E0
4.474313612E0,-3.639186621E-1,1.963245392E0,8.686163902E0,8.912699512E0
4.479348924E0,-5.458779931E-1,1.838746905E0,8.686163902E0,8.895415465E0
4.484384237E0,-7.852981687E-1,1.570596337E0,8.676587105E0,8.852492861E0
4.489419550E0,-9.864110947E-1,1.407790542E0,8.791508675E0,8.957985590E0
4.494424347E0,-1.235408068E0,1.139639974E0,8.801085472E0,8.960140504E0
4.499459659E0,-1.292868972E0,9.481038451E-1,8.829815865E0,8.974188503E0
4.504494972E0,-1.484405041E0,7.852981687E-1,8.820239067E0,8.978684132E0
4.509530285E0,-1.714248419E0,5.841852427E-1,8.839392662E0,9.023014057E0
4.514565598E0,-1.781286120E0,4.596867263E-1,8.992621422E0,9.178863337E0
4.519570394E0,-1.771709204E0,3.351882398E-1,9.107542992E0,9.284322485E0
4.524605707E0,-1.810016513E0,1.723825186E-1,9.251194954E0,9.428174987E0
4.529641020E0,-1.886630893E0,2.011129409E-1,9.184157372E0,9.378089846E0
4.534676333E0,-1.944091797E0,9.576806426E-2,9.184157372E0,9.388152697E0
4.539681129E0,-1.934514999E0,1.053448766E-1,9.260771751E0,9.461254634E0
4.544716441E0,-1.953668594E0,6.703764945E-2,9.375694275E0,9.577314768E0
4.549751755E0,-1.896207690E0,2.011129409E-1,9.471462250E0,9.661503360E0
4.554787068E0,-1.848323703E0,2.011129409E-1,9.586383820E0,9.765014166E0
4.559822381E0,-1.771709204E0,2.585737705E-1,9.595960617E0,9.761571291E0
4.564827176E0,-1.656787634E0,2.968810201E-1,9.576807022E0,9.723595855E0
4.569862490E0,-1.742978811E0,2.681505978E-1,9.576807022E0,9.737818679E0
4.574897803E0,-1.819593310E0,3.447650373E-1,9.691728592E0,9.867085986E0
4.579933116E0,-1.704671621E0,4.309563041E-1,9.615114212E0,9.774561370E0
4.584968429E0,-1.580173135E0,4.884171486E-1,9.634267807E0,9.775204071E0
4.589973225E0,-1.532289028E0,5.458779931E-1,9.548076630E0,9.685641939E0
4.595008537E0,-1.436521053E0,7.374141216E-1,9.615114212E0,9.749758645E0
4.600043851E0,-1.312022567E0,8.523358107E-1,9.730035782E0,9.855022875E0
4.605079164E0,-1.187524080E0,9.864110947E-1,9.749189377E0,9.870659238E0
4.610114476E0,-1.034295082E0,1.101332784E0,9.739612579E0,9.856102344E0
4.615119272E0,-8.044517636E-1,1.292868972E0,9.787496567E0,9.905238102E0
4.620154586E0,-7.757213712E-1,1.379060149E0,9.873687744E0,9.999663005E0
4.625189899E0,-6.129156351E-1,1.455674648E0,1.001733971E1,1.014109210E1
4.630225211E0,-5.554547906E-1,1.570596337E0,1.008437729E1,1.022105514E1
4.635260525E0,-4.213795066E-1,1.695094824E0,1.007480049E1,1.022509228E1
4.640265321E0,-3.351882398E-1,1.762132406E0,1.018014526E1,1.033696374E1
4.645300633E0,-2.681505978E-1,1.829170108E0,1.030464458E1,1.046916750E1
4.650335946E0,-1.053448766E-1,1.953668594E0,1.023760605E1,1.042288329E1
4.655371260E0,-2.873042040E-2,2.049436569E0,1.029506683E1,1.049711469E1
4.660406572E0,8.619125932E-2,2.116474390E0,1.028549004E1,1.050134268E1
4.665411368E0,2.106897533E-1,2.164358377E0,1.020887566E1,1.043791069E1
4.670446681E0,2.968810201E-1,2.231395960E0,1.018014526E1,1.042605505E1
4.675481995E0,2.585737705E-1,2.288856745E0,1.002691650E1,1.028808924E1
4.680517307E0,2.394201756E-1,2.298433542E0,9.873687744E0,1.014050435E1
4.685522103E0,2.968810201E-1,2.317587137E0,9.825803757E0,1.009979049E1
4.690557416E0,1.915361285E-1,2.336740971E0,9.634267807E0,9.915450601E0
4.695592729E0,1.244984865E-1,2.298433542E0,9.414001465E0,9.691321902E0
4.700628042E0,4.788403213E-2,2.269703150E0,9.232041359E0,9.507072784E0
4.705663355E0,-4.788403213E-2,2.231395960E0,9.078812599E0,9.349131458E0
4.710668151E0,-1.915361285E-1,2.193088770E0,8.848969460E0,9.118694256E0
4.715703464E0,-2.681505978E-1,2.078166962E0,8.714894295E0,8.963261975E0
4.720738777E0,-4.022258818E-1,2.020706177E0,8.542511940E0,8.787465468E0
4.725774089E0,-4.884171486E-1,1.857900500E0,8.446743965E0,8.662437832E0
4.730809403E0,-6.799532771E-1,1.800439715E0,8.264783859E0,8.485904305E0
4.735814199E0,-7.948749661E-1,1.695094824E0,8.216899872E0,8.427491690E0
4.740849512E0,-9.481038451E-1,1.503558636E0,8.255207062E0,8.444408393E0
4.745884824E0,-1.082179189E0,1.436521053E0,8.216899872E0,8.411429607E0
4.750920138E0,-1.187524080E0,1.417367458E0,8.312667847E0,8.515843510E0
4.755955451E0,-1.244984865E0,1.369483352E0,8.398859978E0,8.600367486E0
4.760960247E0,-1.331176162E0,1.340752959E0,8.513781548E0,8.720901600E0
4.765995559E0,-1.388636947E0,1.225831270E0,8.848969460E0,9.040754137E0
4.771030873E0,-1.436521053E0,1.302445769E0,8.963891029E0,9.171221298E0
4.776066185E0,-1.446097851E0,1.254561663E0,9.241618156E0,9.437829735E0
4.781101499E0,-1.388636947E0,1.206677675E0,9.471462250E0,9.648470383E0
4.786106294E0,-1.388636947E0,1.177947283E0,9.605537415E0,9.776616050E0
4.791141608E0,-1.331176162E0,1.187524080E0,9.710882187E0,9.873372082E0
4.796176920E0,-1.273715258E0,1.130063176E0,9.806650162E0,9.953380367E0
4.801212234E0,-1.369483352E0,1.053448796E0,9.787496567E0,9.938829310E0
4.806217029E0,-1.321599364E0,1.063025594E0,9.854534149E0,9.999424563E0
4.811252343E0,-1.331176162E0,1.130063176E0,9.883264542E0,1.003633353E1
4.816287655E0,-1.302445769E0,1.130063176E0,9.835380554E0,9.985395256E0
4.821322969E0,-1.187524080E0,1.158793569E0,9.998186111E0,1.013492681E1
4.826358281E0,-1.187524080E0,1.216254473E0,1.002691650E1,1.016998245E1
4.831363078E0,-1.120486379E0,1.283292055E0,1.000776291E1,1.015173122E1
4.836398390E0,-1.082179189E0,1.388636947E0,9.998186111E0,1.015200226E1
4.841433704E0,-9.385270476E-1,1.436521053E0,1.005564690E1,1.020100290E1
4.846469016E0,-9.576807022E-1,1.637633920E0,1.018972206E1,1.036481707E1
4.851504329E0,-7.278373241E-1,1.733402014E0,1.028549004E1,1.045589475E1
4.856539642E0,-6.991068721E-1,1.752555609E0,1.040041256E1,1.057018368E1
4.861544439E0,-5.841852427E-1,1.867477298E0,1.050575733E1,1.068642508E1
4.866579751E0,-4.692635238E-1,1.944091797E0,1.055364132E1,1.074146388E1
4.871615064E0,-4.309563041E-1,1.963245392E0,1.061110210E1,1.079979369E1
4.876650377E0,-3.160346150E-1,2.030282974E0,1.074517727E1,1.093987026E1
4.881655174E0,-2.968810201E-1,2.059013367E0,1.088882923E1,1.108576909E1
4.886690486E0,-2.585737705E-1,2.059013367E0,1.093671322E1,1.113185036E1
4.891725799E0,-2.298433632E-1,2.106897593E0,1.099417400E1,1.119659356E1
4.896761112E0,-2.011129409E-1,2.020706177E0,1.101332760E1,1.119897695E1
4.901796425E0,-1.819593310E-1,2.087743998E0,1.095586681E1,1.115449693E1
4.906801221E0,-2.202665508E-1,2.049436569E0,1.092713642E1,1.111984793E1
4.911836534E0,-1.340752989E-1,2.087743998E0,1.085052204E1,1.105036107E1
4.916871847E0,-1.628057212E-1,2.087743998E0,1.067813969E1,1.088153702E1
4.921907160E0,-1.819593310E-1,2.135627985E0,1.052491093E1,1.074093879E1
4.926942472E0,-2.011129409E-1,2.126051188E0,1.041956615E1,1.063615997E1
4.931947268E0,-1.436520964E-1,2.212242365E0,1.028549004E1,1.052168986E1
4.936982582E0,-1.532289088E-1,2.308010340E0,1.017056847E1,1.043028541E1
4.942017895E0,-1.819593310E-1,2.346317768E0,1.008437729E1,1.035533590E1
4.947053207E0,-4.788403213E-2,2.442085743E0,9.940725327E0,1.023641029E1
4.952088521E0,-1.244984865E-1,2.451662540E0,9.777919769E0,1.008136221E1
4.957093317E0,-2.873042040E-2,2.509123325E0,9.777919769E0,1.009476301E1
4.962128630E0,-5.746084079E-2,2.557007313E0,9.538499832E0,9.875452759E0
4.967163942E0,-1.915361360E-2,2.566584110E0,9.366117477E0,9.711430248E0
4.972199256E0,-7.661445439E-2,2.451662540E0,9.299078941E0,9.617140331E0
4.977234568E0,-8.619125932E-2,2.442085743E0,9.212887764E0,9.531448613E0
4.982239364E0,-7.661445439E-2,2.336740971E0,9.279925346E0,9.569913405E0
4.987274677E0,-1.340752989E-1,2.240972757E0,9.346963882E0,9.612786740E0
4.992309991E0,-1.053448766E-1,2.106897593E0,9.490615845E0,9.722237609E0
4.997345303E0,-2.202665508E-1,1.944091797E0,9.787496567E0,9.981137175E0
5.002380617E0,-2.585737705E-1,1.848323703E0,1.016099167E1,1.033096862E1
5.007385412E0,-3.830722570E-1,1.647210717E0,1.058237171E1,1.071665239E1
5.012420726E0,-5.171475410E-1,1.465251446E0,1.073560047E1,1.084746610E1
5.017456038E0,-6.416460276E-1,1.283292055E0,1.087925243E1,1.097345350E1
5.022491352E0,-6.607996821E-1,1.043871999E0,1.108994198E1,1.115854552E1
5.027496147E0,-9.385270476E-1,8.331822157E-1,1.128147888E1,1.135107005E1
5.032531460E0,-9.864110947E-1,6.512228847E-1,1.132936287E1,1.139085428E1
5.037566773E0,-1.091755986E0,4.884171486E-1,1.131978607E1,1.138279575E1
5.042602087E0,-1.120486379E0,3.639186621E-1,1.125274754E1,1.131425002E1
5.047637399E0,-1.321599364E0,2.011129409E-1,1.136767006E1,1.144600340E1
5.052642195E0,-1.455674648E0,1.915361360E-2,1.131020927E1,1.140351654E1
5.057677508E0,-1.561019540E0,3.830722719E-2,1.129105568E1,1.139851691E1
5.062712822E0,-1.608903527E0,-6.703764945E-2,1.126232433E1,1.137686310E1
5.067748134E0,-1.666364431E0,-9.576806426E-2,1.121444035E1,1.133797223E1
5.072783447E0,-1.656787634E0,-1.244984865E-1,1.105163479E1,1.117582555E1
5.077788243E0,-1.723825216E0,-1.915361285E-1,1.099417400E1,1.113014472E1
5.082823556E0,-1.810016513E0,-1.436520964E-1,1.087925243E1,1.102972934E1
5.087858869E0,-1.800439715E0,-1.723825186E-1,1.062067890E1,1.077358433E1
5.092894182E0,-1.857900500E0,-1.340752989E-1,1.059194851E1,1.075449412E1
5.097929495E0,-1.877054095E0,-2.489969730E-1,1.038125896E1,1.055252905E1
5.102934290E0,-1.896207690E0,-2.298433632E-1,1.018014526E1,1.035778882E1
5.107969604E0,-1.771709204E0,-2.681505978E-1,1.002691650E1,1.018577011E1
5.113004916E0,-1.790862918E0,-2.202665508E-1,9.854534149E0,1.001836068E1
5.118040230E0,-1.790862918E0,-3.256114423E-1,9.662998199E0,9.832941930E0
5.123075543E0,-1.771709204E0,-2.489969730E-1,9.471462250E0,9.638960014E0
5.128080339E0,-1.810016513E0,-2.394201756E-1,9.203310966E0,9.382665642E0
5.133115651E0,-1.752555609E0,-2.968810201E-1,8.896853447E0,9.072683768E0
5.138150965E0,-1.771709204E0,-3.447650373E-1,8.820239067E0,9.003023583E0
5.143186278E0,-1.704671621E0,-2.968810201E-1,8.504204750E0,8.678452748E0
5.148221590E0,-1.675941229E0,-3.447650373E-1,8.322244644E0,8.496316723E0
5.153226386E0,-1.742978811E0,-2.777273953E-1,8.207323074E0,8.394954419E0
5.158261700E0,-1.608903527E0,-2.968810201E-1,8.092401505E0,8.256129300E0
5.163297012E0,-1.599326730E0,-2.585737705E-1,7.958326340E0,8.121555548E0
5.168332325E0,-1.513135433E0,-2.394201756E-1,7.699752808E0,7.850674758E0
5.173337121E0,-1.388636947E0,-1.915361285E-1,7.632715225E0,7.760369860E0
5.178372435E0,-1.254561663E0,-1.723825186E-1,7.632715225E0,7.737052566E0
5.183407747E0,-1.139639974E0,-1.532289088E-1,7.613561630E0,7.699907731E0
5.188443060E0,-1.024718285E0,-2.106897533E-1,7.805097580E0,7.874895934E0
5.193478374E0,-8.236053586E-1,-9.576806799E-3,8.063671112E0,8.105628249E0
5.198483170E0,-6.703764796E-1,9.576806799E-3,8.197746277E0,8.225116434E0
5.203518482E0,-3.926490843E-1,9.576806799E-3,8.456320763E0,8.465437133E0
5.208553795E0,-2.106897533E-1,-9.576806799E-3,8.810662270E0,8.813186230E0
5.213589108E0,6.703764945E-2,1.532289088E-1,9.021351814E0,9.022902067E0
5.218624421E0,2.106897533E-1,2.489969730E-1,9.107542992E0,9.113381865E0
5.223629217E0,3.351882398E-1,3.256114423E-1,9.289502144E0,9.301248521E0
5.228664530E0,3.351882398E-1,3.351882398E-1,9.624691010E0,9.636357161E0
5.233699843E0,4.884171486E-1,3.926490843E-1,9.825803757E0,9.845767826E0
5.238735156E0,4.596867263E-1,2.585737705E-1,1.021845245E1,1.023205467E1
5.243770469E0,5.075707436E-1,2.106897533E-1,1.048660374E1,1.050099406E1
5.248775265E0,4.692635238E-1,9.576806799E-3,1.081221485E1,1.082239761E1
5.253810578E0,4.692635238E-1,-1.819593310E-1,1.109951878E1,1.111092411E1
5.258845891E0,4.213795066E-1,-4.022258818E-1,1.125274754E1,1.126781582E1
5.263881204E0,4.022258818E-1,-5.937620401E-1,1.132936287E1,1.135203955E1
5.268916517E0,3.160346150E-1,-6.033388376E-1,1.135809326E1,1.137849631E1
5.273921313E0,1.819593310E-1,-6.416460276E-1,1.147301483E1,1.149238392E1
5.278956626E0,3.734954596E-1,-5.554547906E-1,1.145386124E1,1.147340255E1
5.283991939E0,3.543418646E-1,-5.267243981E-1,1.126232433E1,1.128020151E1
5.289027252E0,4.788403511E-1,-4.405331016E-1,1.125274754E1,1.127154313E1
5.294032048E0,5.746083856E-1,-2.106897533E-1,1.103248119E1,1.104944371E1
5.299067361E0,6.512228847E-1,-3.830722719E-2,1.071644688E1,1.073628392E1
5.304102673E0,8.331822157E-1,2.394201756E-1,1.025675964E1,1.029332954E1
5.309137987E0,1.082179189E0,5.171475410E-1,9.969455719E0,1.004134457E1
5.314173299E0,1.158793569E0,7.278373241E-1,9.576807022E0,9.674077860E0
5.319178095E0,1.149216771E0,9.289502501E-1,9.548076630E0,9.661750104E0
5.324213408E0,1.168370485E0,9.768342972E-1,9.442731857E0,9.564751945E0
5.329248722E0,1.206677675E0,1.063025594E0,9.318233490E0,9.455980637E0
5.334284034E0,1.197100878E0,1.082179189E0,9.126696587E0,9.268265905E0
5.339319348E0,1.024718285E0,1.130063176E0,9.097966194E0,9.224970418E0
5.344324143E0,9.672574997E-1,1.139639974E0,8.963891029E0,9.087667948E0
5.349359457E0,7.661445141E-1,1.024718285E0,9.011775017E0,9.102148863E0
5.354394769E0,5.650315881E-1,1.015141487E0,8.992621422E0,9.067359757E0
5.359430083E0,5.171475410E-1,9.289502501E-1,9.030928612E0,9.093297627E0
5.364465395E0,3.351882398E-1,9.193734527E-1,9.078812599E0,9.131398409E0
5.369470191E0,2.011129409E-1,7.469909191E-1,9.059659004E0,9.092626855E0
5.374505504E0,1.244984865E-1,6.799532771E-1,9.107542992E0,9.133738319E0
5.379540818E0,6.703764945E-2,6.416460276E-1,9.145850182E0,9.168575637E0
5.384576130E0,-8.619125932E-2,6.224924326E-1,9.040505409E0,9.062321105E0
5.389611443E0,-9.576806426E-2,4.692635238E-1,9.059659004E0,9.072309576E0
5.394616239E0,-2.298433632E-1,4.405331016E-1,9.030928612E0,9.044587828E0
5.399651553E0,-3.351882398E-1,3.926490843E-1,8.973467827E0,8.988306253E0
5.404686865E0,-4.309563041E-1,3.351882398E-1,8.963891029E0,8.980502039E0
5.409722178E0,-6.129156351E-1,4.022258818E-1,8.954314232E0,8.984274851E0
5.414726974E0,-7.182605267E-1,3.256114423E-1,9.069235802E0,9.103458630E0
5.419762287E0,-8.331822157E-1,2.681505978E-1,9.107542992E0,9.149504724E0
5.424797600E0,-9.481038451E-1,2.298433632E-1,9.241618156E0,9.292966966E0
5.429832913E0,-1.072602391E0,2.011129409E-1,9.423578262E0,9.486556255E0
5.434837709E0,-1.264138460E0,1.723825186E-1,9.682151794E0,9.765849945E0
5.439873022E0,-1.321599364E0,1.723825186E-1,9.749189377E0,9.839869619E0
5.444908335E0,-1.331176162E0,6.703764945E-2,9.921571732E0,1.001069976E1
5.449943648E0,-1.388636947E0,7.661445439E-2,1.004607010E1,1.014187886E1
5.454978961E0,-1.398213744E0,-4.788403213E-2,1.011310768E1,1.020941926E1
5.459983757E0,-1.312022567E0,-6.703764945E-2,1.017056847E1,1.025506510E1
5.465019070E0,-1.312022567E0,-8.619125932E-2,1.019929886E1,1.028370212E1
5.470054382E0,-1.235408068E0,-1.915361360E-2,1.032379818E1,1.039747127E1
5.475089696E0,-1.244984865E0,2.873042040E-2,1.005564690E1,1.013246501E1
5.480094492E0,-1.283292055E0,9.576806799E-3,9.902418137E0,9.985229850E0
5.485129805E0,-1.216254473E0,2.873042040E-2,9.825803757E0,9.900834300E0
5.490165117E0,-1.235408068E0,8.619125932E-2,9.749189377E0,9.827530490E0
5.495200431E0,-1.235408068E0,2.585737705E-1,9.730035782E0,9.811558990E0
5.500235743E0,-1.197100878E0,1.819593310E-1,9.567230225E0,9.643549859E0
5.505240540E0,-1.264138460E0,3.160346150E-1,9.481039047E0,9.570163287E0
5.510275852E0,-1.244984865E0,4.118026793E-1,9.471462250E0,9.561807670E0
5.515311166E0,-1.312022567E0,4.501099288E-1,9.346963882E0,9.449324631E0
5.520346478E0,-1.264138460E0,5.554547906E-1,9.289502144E0,9.391561433E0
5.525351274E0,-1.225831270E0,6.799532771E-1,9.394847870E0,9.498850734E0
5.530386587E0,-1.177947283E0,8.044517636E-1,9.327810287E0,9.436246457E0
5.535421901E0,-1.034295082E0,9.385270476E-1,9.404424667E0,9.507565549E0
5.540457213E0,-1.034295082E0,9.002198577E-1,9.346963882E0,9.447004601E0
5.545492526E0,-9.002198577E-1,9.959878922E-1,9.375694275E0,9.471326771E0
5.550497322E0,-8.906430602E-1,1.158793569E0,9.576807022E0,9.687687048E0
5.555532636E0,-8.427590132E-1,1.139639974E0,9.548076630E0,9.652708912E0
5.560567948E0,-7.661445141E-1,1.264138460E0,9.701305389E0,9.813274159E0
5.565603261E0,-7.182605267E-1,1.292868972E0,9.835380554E0,9.945959934E0
5.570638574E0,-5.554547906E-1,1.283292055E0,9.969455719E0,1.006704603E1
5.575643370E0,-5.267243981E-1,1.359906554E0,1.010353088E1,1.020823789E1
5.580678683E0,-4.788403511E-1,1.283292055E0,1.022802925E1,1.031933665E1
5.585713996E0,-4.022258818E-1,1.379060149E0,1.020887566E1,1.030944881E1
5.590749309E0,-3.543418646E-1,1.398213744E0,1.027591324E1,1.037665422E1
5.595754105E0,-3.351882398E-1,1.340752959E0,1.022802925E1,1.032097631E1
5.600789418E0,-4.213795066E-1,1.350329757E0,1.012268448E1,1.022104164E1
5.605824731E0,-3.639186621E-1,1.331176162E0,9.959878922E0,1.005503132E1
5.610860044E0,-4.884171486E-1,1.187524080E0,9.854534149E0,9.937837192E0
5.615895357E0,-6.129156351E-1,1.197100878E0,9.873687744E0,9.964859545E0
5.620930670E0,-6.799532771E-1,1.072602391E0,9.777919769E0,9.860047026E0
5.625935465E0,-8.140285611E-1,1.024718285E0,9.768342972E0,9.855618422E0
5.630970779E0,-9.193734527E-1,9.002198577E-1,9.710882187E0,9.795758071E0
5.636006092E0,-9.385270476E-1,8.523358107E-1,9.730035782E0,9.812283408E0
5.641041405E0,-9.959878922E-1,7.661445141E-1,9.768342972E0,9.848832099E0
5.646046200E0,-1.082179189E0,5.937620401E-1,9.768342972E0,9.846024049E0
5.651081514E0,-1.187524080E0,5.267243981E-1,9.797073364E0,9.882828468E0
5.656116827E0,-1.455674648E0,4.118026793E-1,9.806650162E0,9.922648715E0
5.661152140E0,-1.369483352E0,4.118026793E-1,9.710882187E0,9.815615057E0
5.666187453E0,-1.379060149E0,4.884171486E-1,9.720458984E0,9.829937999E0
5.671192249E0,-1.254561663E0,5.937620401E-1,9.701305389E0,9.800092070E0
5.676227561E0,-1.177947283E0,6.895300746E-1,9.691728592E0,9.787370159E0
5.681262875E0,-1.158793569E0,7.182605267E-1,9.701305389E0,9.796633451E0
5.686298188E0,-1.187524080E0,8.427590132E-1,9.576807022E0,9.686882312E0
5.691302984E0,-1.139639974E0,9.768342972E-1,9.490615845E0,9.608578127E0
5.696338296E0,-1.101332784E0,1.072602391E0,9.414001465E0,9.538701870E0
5.701373610E0,-1.043871999E0,1.225831270E0,9.385271072E0,9.522375972E0
5.706408922E0,-1.043871999E0,1.312022567E0,9.318233490E0,9.467869208E0
5.711444235E0,-9.385270476E-1,1.407790542E0,9.346963882E0,9.498865251E0
5.716449031E0,-9.097966552E-1,1.474828243E0,9.528923035E0,9.685206374E0
5.721484345E0,-8.810662031E-1,1.426944256E0,9.634267807E0,9.779139213E0
5.726519657E0,-8.523358107E-1,1.589749932E0,9.768342972E0,9.933494128E0
5.731554970E0,-8.236053586E-1,1.647210717E0,9.777919769E0,9.949841403E0
5.736590284E0,-8.619126081E-1,1.695094824E0,9.844957352E0,1.002693498E1
5.741595079E0,-6.895300746E-1,1.733402014E0,9.816226959E0,9.991919034E0
5.746630392E0,-6.320692301E-1,1.810016513E0,9.768342972E0,9.954707213E0
5.751665705E0,-6.224924326E-1,1.915361404E0,9.844957352E0,1.004884528E1
5.756701018E0,-6.129156351E-1,1.991975784E0,9.988609314E0,1.020372232E1
5.761736331E0,-5.554547906E-1,2.049436569E0,1.006522369E1,1.028676083E1
5.766741127E0,-4.405331016E-1,2.068590164E0,1.029506683E1,1.051006831E1
5.771776440E0,-4.213795066E-1,2.087743998E0,1.047702694E1,1.069132027E1
5.776811753E0,-3.351882398E-1,2.097320795E0,1.063983250E1,1.084975305E1
5.781847066E0,-4.309563041E-1,2.145204782E0,1.067813969E1,1.090001349E1
5.786851862E0,-5.363011956E-1,1.857900500E0,1.082179165E1,1.099320644E1
5.791887175E0,-8.236053586E-1,1.819593310E0,1.074517727E1,1.092923054E1
5.796922488E0,-8.044517636E-1,1.867477298E0,1.060152531E1,1.079476507E1
5.801957801E0,-7.757213712E-1,1.934514999E0,1.025675964E1,1.046638478E1
5.806993113E0,-8.523358107E-1,2.049436569E0,9.892841339E0,1.013878574E1
5.812028427E0,-8.427590132E-1,2.154781580E0,9.749189377E0,1.001998103E1
5.817033223E0,-6.320692301E-1,2.346317768E0,9.270348549E0,9.583531750E0
5.822068536E0,9.768342972E-1,2.489969730E0,8.944737434E0,9.336084954E0
5.827103848E0,-4.022258818E-1,2.480392933E0,9.538499832E0,9.863929937E0
5.832139162E0,-1.436521053E0,2.260126352E0,9.739612579E0,1.010107999E1
5.837143958E0,-1.283292055E0,2.442085743E0,9.117119789E0,9.525360598E0
5.842179271E0,-1.130063176E0,2.528276920E0,8.734047890E0,9.162577122E0
5.847214583E0,-1.302445769E0,2.413355350E0,8.762778282E0,9.181880649E0
5.852249897E0,-1.446097851E0,2.240972757E0,8.647856712E0,9.049783622E0
5.857285209E0,-1.513135433E0,2.116474390E0,8.283937454E0,8.682894818E0
5.862290006E0,-1.532289028E0,2.030282974E0,8.015787125E0,8.409685003E0
5.867325318E0,-1.446097851E0,2.049436569E0,8.082824707E0,8.463063540E0
5.872360632E0,-1.474828243E0,1.905784607E0,8.082824707E0,8.434405051E0
5.877395944E0,-1.484405041E0,1.915361404E0,8.245630264E0,8.594328717E0
5.882400740E0,-1.570596337E0,1.905784607E0,8.331821442E0,8.690111412E0
5.887436053E0,-1.503558636E0,1.915361404E0,8.341399193E0,8.689547651E0
5.892471367E0,-1.446097851E0,1.867477298E0,8.504204750E0,8.826107233E0
5.897506679E0,-1.589749932E0,1.867477298E0,8.829815865E0,9.164083397E0
5.902541993E0,-1.838746905E0,1.810016513E0,9.155426979E0,9.512044634E0
5.907577305E0,-2.001552582E0,1.829170108E0,9.414001465E0,9.796708611E0
5.912582101E0,-2.030282974E0,1.819593310E0,9.624691010E0,1.000338172E1
5.917617414E0,-2.193088770E0,1.685518026E0,9.892841339E0,1.027224022E1
5.922652728E0,-2.403778553E0,1.608903527E0,1.009395409E1,1.050022052E1
5.927688040E0,-2.451662540E0,1.589749932E0,1.007480049E1,1.048997421E1
5.932692836E0,-2.566584110E0,1.589749932E0,1.018972206E1,1.062756296E1
5.937728149E0,-2.557007313E0,1.599326730E0,1.021845245E1,1.065424342E1
5.942763462E0,-2.413355350E0,1.733402014E0,1.021845245E1,1.064169804E1
5.947798775E0,-2.212242365E0,1.972822189E0,1.024718285E1,1.066727706E1
5.952834088E0,-2.030282974E0,2.087743998E0,1.034295177E1,1.074510937E1
5.957838884E0,-1.857900500E0,2.202665567E0,1.034295177E1,1.073686087E1
5.962874196E0,-1.714248419E0,2.413355350E0,1.048660374E1,1.089641178E1
5.967909510E0,-1.608903527E0,2.595314741E0,1.066856289E1,1.109695739E1
5.972944823E0,-1.493981838E0,2.738966703E0,1.079306126E1,1.123494956E1
5.977980136E0,-1.379060149E0,2.834734917E0,1.075475407E1,1.120724159E1
5.982984931E0,-1.197100878E0,2.873042107E0,1.079306126E1,1.123287998E1
5.988020245E0,-1.225831270E0,3.055001259E0,1.084094524E1,1.132968617E1
5.993055558E0,-1.091755986E0,3.064578056E0,1.084094524E1,1.131855395E1
5.998090871E0,-9.672574997E-1,3.208230257E0,1.067813969E1,1.119155912E1
6.003095666E0,-9.193734527E-1,3.246537447E0,1.052491093E1,1.105255640E1
6.008130980E0,-9.672574997E-1,3.323152065E0,1.023760605E1,1.080682675E1
6.013166292E0,-8.331822157E-1,3.428496838E0,9.911994934E0,1.052123694E1
6.018201606E0,-9.193734527E-1,3.533841610E0,9.595960617E0,1.026721697E1
6.023236919E0,-9.097966552E-1,3.620033026E0,9.337387085E0,1.005580264E1
6.028241715E0,-9.097966552E-1,3.581725836E0,9.126696587E0,9.846475537E0
6.033277027E0,-8.619126081E-1,3.552995205E0,8.963891029E0,9.680806302E0
6.038312341E0,-7.757213712E-1,3.505111217E0,8.896853447E0,9.593828722E0
6.043347654E0,-7.948749661E-1,3.332728863E0,9.107542992E0,9.730685856E0
6.048382966E0,-7.948749661E-1,3.160346270E0,9.059659004E0,9.627929997E0
6.053387762E0,-8.140285611E-1,2.968810081E0,9.318233490E0,9.813559557E0
6.058423076E0,-9.097966552E-1,2.719813108E0,9.576807022E0,9.997016857E0
6.063458388E0,-1.120486379E0,2.432508945E0,9.844957352E0,1.020273369E1
6.068493701E0,-1.149216771E0,2.173935175E0,1.023760605E1,1.052878298E1
6.073529015E0,-1.130063176E0,1.905784607E0,1.040041256E1,1.063379702E1
6.078533811E0,-1.264138460E0,1.580173135E0,1.062067890E1,1.081174424E1
6.083569123E0,-1.331176162E0,1.388636947E0,1.085052204E1,1.101971738E1
6.088604436E0,-1.359906554E0,1.043871999E0,1.108036518E1,1.121220349E1
6.093639749E0,-1.417367458E0,7.757213712E-1,1.119528675E1,1.131128284E1
6.098675062E0,-1.388636947E0,5.937620401E-1,1.124317074E1,1.134415066E1
6.103679858E0,-1.541865945E0,3.830722570E-1,1.128147888E1,1.139279863E1
6.108715171E0,-1.570596337E0,2.202665508E-1,1.123359394E1,1.134499551E1
6.113750484E0,-1.608903527E0,1.340752989E-1,1.108036518E1,1.119736752E1
6.118785797E0,-1.513135433E0,1.436520964E-1,1.083136845E1,1.093749319E1
6.123790593E0,-1.608903527E0,1.628057212E-1,1.047702694E1,1.060109286E1
6.128825906E0,-1.580173135E0,1.723825186E-1,1.026633644E1,1.038866338E1
6.133861219E0,-1.580173135E0,2.777273953E-1,1.000776291E1,1.013555120E1
6.138896532E0,-1.551442742E0,4.118026793E-1,9.557653427E0,9.691506336E0
6.143931844E0,-1.503558636E0,4.979939461E-1,9.414001465E0,9.546313955E0
6.148936641E0,-1.379060149E0,6.320692301E-1,9.155426979E0,9.280256547E0
6.153971954E0,-1.312022567E0,8.044517636E-1,9.069235802E0,9.198890361E0
6.159007267E0,-1.120486379E0,8.810662031E-1,9.232041359E0,9.341432172E0
6.164042579E0,-1.005564690E0,9.864110947E-1,9.232041359E0,9.338884026E0
6.169077893E0,-7.757213712E-1,1.235408068E0,9.366117477E0,9.479036520E0
6.174082689E0,-6.416460276E-1,1.398213744E0,9.519346237E0,9.642855598E0
6.179118002E0,-5.363011956E-1,1.541865945E0,9.691728592E0,9.828253795E0
6.184153314E0,-3.830722570E-1,1.733402014E0,9.730035782E0,9.890653326E0
6.189188628E0,-3.351882398E-1,1.800439715E0,9.892841339E0,1.006092660E1
6.194223940E0,-3.256114423E-1,1.944091797E0,9.768342972E0,9.965241600E0
6.199228737E0,-1.532289088E-1,1.972822189E0,9.844957352E0,1.004184703E1
6.204264049E0,0.000000000E0,2.106897593E0,9.701305389E0,9.927454040E0
6.209299363E0,9.576806426E-2,2.154781580E0,9.730035782E0,9.966235573E0
6.214334675E0,1.819593310E-1,2.039859772E0,9.557653427E0,9.774603630E0
6.219369989E0,2.585737705E-1,1.982398987E0,9.500192642E0,9.708265879E0
6.224374784E0,2.106897533E-1,1.905784607E0,9.385271072E0,9.579129305E0
6.229410098E0,1.628057212E-1,1.752555609E0,9.270348549E0,9.435958832E0
6.234445410E0,1.915361285E-1,1.704671621E0,9.327810287E0,9.484230922E0
6.239480724E0,1.340752989E-1,1.589749932E0,9.251194954E0,9.387752080E0
6.244485519E0,6.703764945E-2,1.513135433E0,9.174580574E0,9.298763444E0
6.249520833E0,0.000000000E0,1.292868972E0,8.983044624E0,9.075604713E0
6.254556145E0,-1.149216816E-1,1.235408068E0,8.877699852E0,8.963983197E0
6.259591459E0,-2.202665508E-1,1.082179189E0,8.724471092E0,8.794090345E0
6.264626771E0,-3.351882398E-1,1.082179189E0,8.580819130E0,8.655282774E0
6.269662084E0,-3.830722570E-1,1.043871999E0,8.370129585E0,8.443665222E0
6.274666880E0,-3.543418646E-1,1.082179189E0,8.360552788E0,8.437743352E0
6.279702194E0,-4.213795066E-1,1.072602391E0,8.245630264E0,8.325770537E0
6.284737506E0,-4.501099288E-1,1.149216771E0,8.092401505E0,8.185979492E0
6.289772819E0,-4.213795066E-1,1.187524080E0,8.140285492E0,8.237233882E0
6.294777615E0,-3.639186621E-1,1.283292055E0,8.015787125E0,8.126014922E0
6.299812928E0,-4.118026793E-1,1.216254473E0,7.929595947E0,8.032891651E0
6.304848241E0,-4.405331016E-1,1.417367458E0,7.881711960E0,8.020248334E0
6.309883554E0,-4.596867263E-1,1.321599364E0,7.795520782E0,7.920106125E0
6.314918867E0,-4.884171486E-1,1.331176162E0,7.728483200E0,7.857482667E0
6.319923663E0,-4.979939461E-1,1.254561663E0,7.728483200E0,7.845468470E0
6.324958976E0,-6.129156351E-1,1.273715258E0,7.747636795E0,7.875524874E0
6.329994289E0,-6.703764796E-1,1.244984865E0,7.795520782E0,7.922722777E0
6.335029602E0,-8.236053586E-1,1.264138460E0,7.795520782E0,7.940183632E0
6.340064915E0,-7.852981687E-1,1.254561663E0,7.805097580E0,7.944190734E0
6.345069711E0,-8.714894056E-1,1.225831270E0,8.006210327E0,8.146260485E0
6.350105023E0,-8.906430602E-1,1.292868972E0,8.245630264E0,8.393758020E0
6.355140337E0,-9.481038451E-1,1.168370485E0,8.331821442E0,8.466595480E0
6.360175650E0,-9.002198577E-1,1.206677675E0,8.628703117E0,8.759051563E0
6.365210962E0,-9.193734527E-1,1.206677675E0,8.916007042E0,9.044141757E0
6.370215758E0,-8.906430602E-1,1.149216771E0,9.117119789E0,9.232324599E0
6.375251072E0,-9.002198577E-1,1.197100878E0,9.318233490E0,9.437845182E0
6.380286385E0,-9.481038451E-1,1.235408068E0,9.662998199E0,9.787679408E0
6.385321697E0,-9.768342972E-1,1.283292055E0,9.797073364E0,9.928931979E0
6.390357011E0,-1.005564690E0,1.292868972E0,1.005564690E1,1.018816495E1
6.395361807E0,-9.481038451E-1,1.321599364E0,1.029506683E1,1.042276004E1
6.400397119E0,-9.768342972E-1,1.350329757E0,1.035252857E1,1.048582107E1
6.405432432E0,-9.768342972E-1,1.446097851E0,1.064940929E1,1.079144673E1
6.410467746E0,-9.002198577E-1,1.398213744E0,1.074517727E1,1.087309671E1
6.415503058E0,-8.044517636E-1,1.551442742E0,1.095586681E1,1.109437402E1
6.420507854E0,-8.044517636E-1,1.532289028E0,1.119528675E1,1.132826102E1
6.425543167E0,-7.469909191E-1,1.637633920E0,1.134851646E1,1.149037276E1
6.430578481E0,-7.374141216E-1,1.742978811E0,1.155920601E1,1.171311224E1
6.435613793E0,-6.033388376E-1,1.934514999E0,1.154962921E1,1.172605223E1
6.440618589E0,-4.884171486E-1,2.049436569E0,1.163582039E1,1.182501830E1
6.445653902E0,-3.351882398E-1,2.078166962E0,1.149216843E1,1.168336699E1
6.450689215E0,-2.968810201E-1,2.193088770E0,1.145386124E1,1.166570675E1
6.455724528E0,-2.873041928E-1,2.288856745E0,1.125274754E1,1.148676351E1
6.460759842E0,-2.106897533E-1,2.432508945E0,1.083136845E1,1.110315416E1
6.465764637E0,-2.011129409E-1,2.480392933E0,1.044829655E1,1.074056313E1
6.470799950E0,-1.915361285E-1,2.537853718E0,9.940725327E0,1.026135506E1
6.475835263E0,-1.532289088E-1,2.738966703E0,9.710882187E0,1.009091921E1
6.480870576E0,-1.340752989E-1,2.853888512E0,9.337387085E0,9.764704471E0
6.485905889E0,-1.436520964E-1,2.968810081E0,9.069235802E0,9.543872760E0
6.490910685E0,-9.576806426E-2,2.959233284E0,8.858546257E0,9.340239555E0
6.495945998E0,-8.619125932E-2,2.968810081E0,8.628703117E0,9.125556406E0
6.500974785E0,-5.746084079E-2,2.959233284E0,8.743624687E0,9.230998648E0
6.506010097E0,-2.873042040E-2,2.844311714E0,8.599972725E0,9.058171197E0
6.511045409E0,-1.340752989E-1,2.825158119E0,8.628703117E0,9.080419157E0
6.516050204E0,-2.585737705E-1,2.710236311E0,8.686163902E0,9.102839370E0
6.521085517E0,-3.064578176E-1,2.643198729E0,8.762778282E0,9.157876344E0
6.526120829E0,-3.830722570E-1,2.576161146E0,8.772355080E0,9.150823146E0
6.531156141E0,-4.692635238E-1,2.509123325E0,8.801085472E0,9.163788169E0
6.536191454E0,-4.405331016E-1,2.451662540E0,8.734047890E0,9.082307590E0
6.541196250E0,-5.171475410E-1,2.355894566E0,8.523358345E0,8.858065153E0
6.546231562E0,-5.458779931E-1,2.403778553E0,8.590395927E0,8.937059713E0
6.551266874E0,-6.512228847E-1,2.470816135E0,8.580819130E0,8.953182706E0
6.556302187E0,-7.661445141E-1,2.470816135E0,8.657433510E0,9.035655193E0
6.561306982E0,-9.097966552E-1,2.442085743E0,8.762778282E0,9.142089255E0
6.566342294E0,-9.959878922E-1,2.384624958E0,8.705317497E0,9.080802872E0
6.571377606E0,-9.768342972E-1,2.336740971E0,8.743624687E0,9.103050932E0
6.576412919E0,-9.959878922E-1,2.346317768E0,8.820239067E0,9.181166383E0
6.581448231E0,-1.110909581E0,2.250549555E0,8.839392662E0,9.188795135E0
6.586453027E0,-1.273715258E0,2.145204782E0,8.877699852E0,9.221594698E0
6.591488339E0,-1.312022567E0,2.106897593E0,8.858546257E0,9.199688172E0
6.596523652E0,-1.359906554E0,2.097320795E0,8.925583839E0,9.268988468E0
6.601558964E0,-1.398213744E0,2.126051188E0,9.050082207E0,9.401015013E0
6.606594276E0,-1.398213744E0,2.087743998E0,9.117119789E0,9.457037058E0
6.611599071E0,-1.522712231E0,2.087743998E0,9.366117477E0,9.716042617E0
6.616634384E0,-1.388636947E0,2.154781580E0,9.414001465E0,9.756783272E0
6.621669696E0,-1.379060149E0,2.106897593E0,9.423578262E0,9.754211994E0
6.626705008E0,-1.436521053E0,2.135627985E0,9.500192642E0,9.842670363E0
6.631740321E0,-1.340752959E0,2.087743998E0,9.576807022E0,9.893003904E0
6.636745117E0,-1.407790542E0,2.087743998E0,9.557653427E0,9.883789164E0
6.641780429E0,-1.369483352E0,2.240972757E0,9.414001465E0,9.773477740E0
6.646815741E0,-1.321599364E0,2.336740971E0,9.528923035E0,9.899866537E0
6.651851054E0,-1.283292055E0,2.365471363E0,9.538499832E0,9.910866376E0
6.656855849E0,-1.225831270E0,2.317587137E0,9.461885452E0,9.818408667E0
6.661891161E0,-1.197100878E0,2.432508945E0,9.442731857E0,9.824221863E0
6.666926473E0,-1.063025594E0,2.451662540E0,9.461885452E0,9.831986012E0
6.671961786E0,-9.481038451E-1,2.489969730E0,9.490615845E0,9.857516892E0
6.676997098E0,-9.193734527E-1,2.509123325E0,9.375694275E0,9.749081523E0
6.682001894E0,-9.002198577E-1,2.576161146E0,9.251194954E0,9.645289530E0
6.687037206E0,-9.002198577E-1,2.614468336E0,9.193734169E0,9.600551466E0
6.692072519E0,-8.619126081E-1,2.719813108E0,9.136273384E0,9.571403661E0
6.697107831E0,-8.044517636E-1,2.815581083E0,9.078812599E0,9.539364638E0
6.702143144E0,-7.852981687E-1,2.930502892E0,9.069235802E0,9.563241001E0
6.707147938E0,-7.086837292E-1,3.026270866E0,9.021351814E0,9.541767999E0
6.712183251E0,-5.554547906E-1,3.160346270E0,8.983044624E0,9.538941728E0
6.717218563E0,-5.075707436E-1,3.122039080E0,8.896853447E0,9.442391505E0
6.722253876E0,-4.501099288E-1,3.150769472E0,8.791508675E0,9.349896897E0
6.727258671E0,-4.692635238E-1,3.160346270E0,8.762778282E0,9.327072425E0
6.732293984E0,-7.278373241E-1,2.873042107E0,8.935160637E0,9.413884093E0
6.737329296E0,-6.033388376E-1,2.873042107E0,9.107542992E0,9.568998278E0
6.742364609E0,-6.129156351E-1,2.940079689E0,9.385271072E0,9.854087845E0
6.747399921E0,-1.254561663E0,2.327163935E0,1.019929886E1,1.053638051E1
6.752404716E0,-7.948749661E-1,2.633621931E0,1.011310768E1,1.048058861E1
6.757440028E0,-5.554547906E-1,2.710236311E0,1.015141487E1,1.052165076E1
6.762475341E0,-3.734954596E-1,2.892195702E0,1.016099167E1,1.057118946E1
6.767510653E0,-3.256114423E-1,3.026270866E0,1.007480049E1,1.052454004E1
6.772545965E0,-5.841852427E-1,3.102885485E0,9.768342972E0,1.026594833E1
6.777550761E0,-5.937620401E-1,3.045424461E0,9.471462250E0,9.966732697E0
6.782586073E0,-7.086837292E-1,2.853888512E0,9.145850182E0,9.606949974E0
6.787621386E0,-8.427590132E-1,2.786850691E0,8.848969460E0,9.315634172E0
6.792656698E0,-8.810662031E-1,2.758120298E0,8.667010307E0,9.137864789E0
6.797661493E0,-9.097966552E-1,2.758120298E0,8.465897560E0,8.950216703E0
6.802696805E0,-9.002198577E-1,2.815581083E0,8.360552788E0,8.867735649E0
6.807732118E0,-1.101332784E0,2.806004286E0,8.283937454E0,8.815339681E0
6.812767430E0,-1.139639974E0,2.834734917E0,8.044517517E0,8.605159115E0
6.817802743E0,-1.216254473E0,2.815581083E0,7.929595947E0,8.502074080E0
6.822807538E0,-1.359906554E0,2.700659513E0,7.920019150E0,8.477594646E0
6.827842851E0,-1.398213744E0,2.604891539E0,7.862558365E0,8.400017003E0
6.832878163E0,-1.532289028E0,2.528276920E0,7.862558365E0,8.399995113E0
6.837913476E0,-1.493981838E0,2.547430515E0,7.948749542E0,8.479622825E0
6.842948788E0,-1.474828243E0,2.518700123E0,7.987056732E0,8.503648858E0
6.847953583E0,-1.541865945E0,2.537853718E0,8.054094315E0,8.584083371E0
6.852988895E0,-1.580173135E0,2.432508945E0,8.236053467E0,8.731931265E0
6.858024208E0,-1.608903527E0,2.461239338E0,8.638279915E0,9.125028741E0
6.863059520E0,-1.541865945E0,2.394201756E0,9.059659004E0,9.496682258E0
6.868094832E0,-1.436521053E0,2.355894566E0,9.346963882E0,9.745746034E0
6.873099628E0,-1.292868972E0,2.365471363E0,9.576807022E0,9.948979731E0
6.878134941E0,-1.225831270E0,2.308010340E0,9.797073364E0,1.013963611E1
6.883170253E0,-1.072602391E0,2.250549555E0,1.005564690E1,1.036009091E1
6.888205565E0,-1.082179189E0,2.193088770E0,1.025675964E1,1.054428132E1
6.893210361E0,-9.385270476E-1,2.193088770E0,1.044829655E1,1.071715317E1
6.898245674E0,-9.385270476E-1,2.250549555E0,1.055364132E1,1.083167353E1
6.903280985E0,-8.906430602E-1,2.116474390E0,1.096544361E1,1.120328802E1
6.908316297E0,-8.714894056E-1,1.991975784E0,1.176989555E1,1.196903934E1
6.913351610E0,-9.768342972E-1,1.924938202E0,1.144428444E1,1.164608255E1
6.918356406E0,-9.002198577E-1,1.896207690E0,1.076433086E1,1.096707884E1
6.923391718E0,-9.097966552E-1,1.991975784E0,1.089840603E1,1.111624718E1
6.928427030E0,-9.672574997E-1,2.049436569E0,1.123359394E1,1.145990446E1
6.933462343E0,-1.034295082E0,2.049436569E0,1.106121159E1,1.129691809E1
6.938497655E0,-1.072602391E0,2.212242365E0,1.056321812E1,1.084555527E1
6.943502451E0,-1.110909581E0,2.317587137E0,1.031422138E1,1.062960455E1
6.948537763E0,-9.959878922E-1,2.461239338E0,1.029506683E1,1.063193736E1
6.953573076E0,-9.576807022E-1,2.671929121E0,1.005564690E1,1.044855933E1
6.958608388E0,-9.385270476E-1,2.758120298E0,9.864110947E0,1.028536559E1
6.963643700E0,-8.523358107E-1,2.882618904E0,9.787496567E0,1.023870388E1
6.968648495E0,-7.565677166E-1,3.035847664E0,9.538499832E0,1.003851308E1
6.973683808E0,-6.607996821E-1,3.169923067E0,9.414001465E0,9.955324809E0
6.978719120E0,-5.267243981E-1,3.256114244E0,9.385271072E0,9.948016469E0
6.983754432E0,-5.075707436E-1,3.323152065E0,9.232041359E0,9.825047347E0
6.988789745E0,-3.926490843E-1,3.409343243E0,9.203310966E0,9.822358545E0
6.993794541E0,-3.543418646E-1,3.409343243E0,9.318233490E0,9.928678405E0
6.998829853E0,-2.681505978E-1,3.533841610E0,9.270348549E0,9.924681531E0
7.003865165E0,-2.298433632E-1,3.533841610E0,9.299078941E0,9.950564489E0
7.008900478E0,-1.628057212E-1,3.687070608E0,9.136273384E0,9.853551985E0
7.013905273E0,-2.106897533E-1,3.734954596E0,9.232041359E0,9.961167786E0
7.018940585E0,-2.202665508E-1,3.869029999E0,8.992621422E0,9.792096329E0
7.023975897E0,-1.628057212E-1,3.974374771E0,8.877699852E0,9.728088979E0
7.029011210E0,-1.819593310E-1,4.079719543E0,8.532935143E0,9.459820447E0
7.034046522E0,-1.436520964E-1,4.050989151E0,8.255207062E0,9.196716406E0
7.039051318E0,-6.703764945E-2,4.060565948E0,8.169015884E0,9.122801674E0
7.044086630E0,-7.661445439E-2,4.089296341E0,8.264783859E0,9.221435169E0
7.049121943E0,-9.576806426E-2,3.993528366E0,8.571242332E0,9.456407111E0
7.054157255E0,-1.244984865E-1,4.012681961E0,9.078812599E0,9.926830038E0
7.059192568E0,-2.585737705E-1,3.821146011E0,9.682151794E0,1.041211221E1
7.064197362E0,-3.256114423E-1,3.744531393E0,1.019929886E1,1.086983143E1
7.069232675E0,-4.788403511E-1,3.485957623E0,1.076433086E1,1.132484029E1
7.074267987E0,-6.033388376E-1,3.323152065E0,1.124317074E1,1.173951641E1
7.079303300E0,-7.852981687E-1,3.026270866E0,1.139640045E1,1.181748500E1
7.084308095E0,-9.002198577E-1,2.844311714E0,1.173158836E1,1.210498536E1
7.089343408E0,-1.034295082E0,2.585737944E0,1.187524033E1,1.219742349E1
7.094378720E0,-1.206677675E0,2.403778553E0,1.190397072E1,1.220404610E1
7.099414033E0,-1.331176162E0,2.126051188E0,1.193270111E1,1.219350152E1
7.104449345E0,-1.551442742E0,1.924938202E0,1.185608673E1,1.211111697E1
7.109454140E0,-1.551442742E0,1.771709204E0,1.185608673E1,1.208770949E1
7.114489452E0,-1.704671621E0,1.608903527E0,1.154962921E1,1.178509274E1
7.119524765E0,-1.924938202E0,1.695094824E0,1.120486355E1,1.149468141E1
7.124560077E0,-1.972822189E0,1.647210717E0,1.090798283E1,1.120666854E1
7.129564873E0,-2.097320795E0,1.580173135E0,1.065898609E1,1.097769038E1
7.134600185E0,-2.087743998E0,1.647210717E0,1.047702694E1,1.080925861E1
7.139635498E0,-2.193088770E0,1.532289028E0,1.026633644E1,1.060920411E1
7.144670810E0,-2.173935175E0,1.541865945E0,1.016099167E1,1.050471782E1
7.149706122E0,-2.212242365E0,1.589749932E0,1.007480049E1,1.043661468E1
7.154710917E0,-2.317587137E0,1.513135433E0,9.940725327E0,1.031885696E1
7.159746230E0,-2.269703150E0,1.388636947E0,9.806650162E0,1.016121313E1
7.164781542E0,-2.298433542E0,1.283292055E0,9.816226959E0,1.016306779E1
7.169816854E0,-2.384624958E0,1.177947283E0,9.749189377E0,1.010547819E1
7.174852167E0,-2.384624958E0,1.091755986E0,9.605537415E0,9.957143985E0
7.179856963E0,-2.403778553E0,9.289502501E-1,9.471462250E0,9.815788152E0
7.184892275E0,-2.480392933E0,9.002198577E-1,9.375694275E0,9.739937784E0
7.189927587E0,-2.470816135E0,8.619126081E-1,9.241618156E0,9.604963918E0
7.194962900E0,-2.557007313E0,9.193734527E-1,9.289502144E0,9.678759426E0
7.199998212E0,-2.509123325E0,9.768342972E-1,9.203310966E0,9.589099950E0
7.205003007E0,-2.461239338E0,1.072602391E0,8.954314232E0,9.348150530E0
7.210038319E0,-2.375048161E0,1.091755986E0,8.705317497E0,9.089297972E0
7.215073632E0,-2.298433542E0,1.216254473E0,8.590395927E0,8.975353691E0
7.220108944E0,-2.193088770E0,1.292868972E0,8.465897560E0,8.840394224E0
7.225144256E0,-2.001552582E0,1.388636947E0,8.178592682E0,8.533692259E0
7.230149052E0,-1.771709204E0,1.561019540E0,8.044517517E0,8.383913024E0
7.235184365E0,-1.714248419E0,1.618480325E0,7.833827972E0,8.180891571E0
7.240219677E0,-1.580173135E0,1.685518026E0,7.824251175E0,8.158236611E0
7.245254989E0,-1.493981838E0,1.867477298E0,7.824251175E0,8.181586621E0
7.250259784E0,-1.331176162E0,1.896207690E0,7.939172745E0,8.270314229E0
7.255295097E0,-1.206677675E0,1.963245392E0,7.939172745E0,8.266853534E0
7.260330409E0,-1.043871999E0,2.001552582E0,8.101978302E0,8.410584634E0
7.265365721E0,-8.906430602E-1,2.049436569E0,8.283937454E0,8.580038173E0
7.270401034E0,-7.182605267E-1,2.049436569E0,8.427590370E0,8.702894225E0
7.275405830E0,-7.374141216E-1,1.972822189E0,8.609549522E0,8.863416382E0
7.280441142E0,-6.033388376E-1,2.049436569E0,8.839392662E0,9.093902938E0
7.285476454E0,-6.703764796E-1,1.944091797E0,9.117119789E0,9.346163426E0
7.290511767E0,-6.512228847E-1,1.972822189E0,9.337387085E0,9.565715666E0
7.295547079E0,-6.129156351E-1,1.905784607E0,9.567230225E0,9.774434752E0
7.300551874E0,-6.129156351E-1,1.848323703E0,9.682151794E0,9.876033083E0
7.305587186E0,-5.075707436E-1,1.733402014E0,9.825803757E0,9.990431926E0
7.310622499E0,-5.458779931E-1,1.666364431E0,9.854534149E0,1.000932548E1
7.315657811E0,-5.937620401E-1,1.513135433E0,9.883264542E0,1.001603965E1
7.320693124E0,-7.469909191E-1,1.484405041E0,9.931148529E0,1.006921868E1
7.325697919E0,-7.182605267E-1,1.331176162E0,9.911994934E0,1.002674283E1
7.330733232E0,-7.757213712E-1,1.331176162E0,9.816226959E0,9.936402032E0
7.335768544E0,-7.565677166E-1,1.273715258E0,9.797073364E0,9.908450523E0
7.340803857E0,-6.224924326E-1,1.312022567E0,9.528923035E0,9.638945702E0
7.345839169E0,-5.841852427E-1,1.398213744E0,9.490615845E0,9.610830515E0
7.350843964E0,-4.118026793E-1,1.541865945E0,9.471462250E0,9.604974190E0
7.355879276E0,-3.639186621E-1,1.561019540E0,9.327810287E0,9.464526589E0
7.360914589E0,-3.543418646E-1,1.570596337E0,9.308655739E0,9.446872640E0
7.365949901E0,-4.022258818E-1,1.551442742E0,9.126696587E0,9.266355855E0
7.370985213E0,-4.596867263E-1,1.541865945E0,8.916007042E0,9.060013469E0
7.375990009E0,-4.022258818E-1,1.618480325E0,9.011775017E0,9.164788769E0
7.381025322E0,-5.650315881E-1,1.503558636E0,8.906430244E0,9.050107677E0
7.386060634E0,-5.363011956E-1,1.608903527E0,8.820239067E0,8.981804203E0
7.391095946E0,-4.788403511E-1,1.675941229E0,8.954314232E0,9.122379648E0
7.396131259E0,-3.351882398E-1,1.723825216E0,9.126696587E0,9.294111852E0
7.401136054E0,-3.639186621E-1,1.398213744E0,9.059659004E0,9.174140818E0
7.406171366E0,-3.064578176E-1,1.513135433E0,9.452308655E0,9.577558882E0
7.411206678E0,4.788403213E-2,2.059013367E0,9.691728592E0,9.908149778E0
7.416241991E0,2.394201756E-1,2.183511972E0,9.758766174E0,1.000292776E1
7.421246786E0,6.703764945E-2,2.068590164E0,1.032379818E1,1.052921498E1
7.426282099E0,-1.915361360E-2,2.212242365E0,1.055364132E1,1.078302964E1
7.431317411E0,9.576806426E-2,2.442085743E0,1.068771648E1,1.096358691E1
7.436352724E0,2.489969730E-1,2.288856745E0,1.083136845E1,1.107336476E1
7.441388036E0,2.202665508E-1,2.365471363E0,1.086967564E1,1.112626714E1
7.446392831E0,4.788403213E-2,2.308010340E0,1.087925243E1,1.112148093E1
7.451428143E0,-5.746084079E-2,2.240972757E0,1.081221485E1,1.104215788E1
7.456463456E0,-1.819593310E-1,2.231395960E0,1.059194851E1,1.082596926E1
7.461498768E0,-4.118026793E-1,2.183511972E0,1.051533413E1,1.074753729E1
7.466534080E0,-5.554547906E-1,2.164358377E0,1.018972206E1,1.043184609E1
7.471538876E0,-7.182605267E-1,2.087743998E0,9.969455719E0,1.021100487E1
7.476574189E0,-7.757213712E-1,2.164358377E0,9.730035782E0,9.997989155E0
7.481609501E0,-8.810662031E-1,2.116474390E0,9.404424667E0,9.679821528E0
7.486644813E0,-9.864110947E-1,2.011129379E0,9.145850182E0,9.416168211E0
7.491680126E0,-1.082179189E0,2.173935175E0,8.963891029E0,9.287004271E0
7.496684921E0,-8.906430602E-1,2.480392933E0,8.896853447E0,9.278986767E0
7.501720233E0,-8.810662031E-1,2.633621931E0,8.781931877E0,9.210568366E0
7.506755545E0,-1.015141487E0,2.767697096E0,8.762778282E0,9.245374123E0
7.511790858E0,-1.130063176E0,2.691082716E0,8.705317497E0,9.181586012E0
7.516795654E0,-1.158793569E0,2.643198729E0,8.523358345E0,8.998718772E0
7.521830966E0,-1.091755986E0,2.691082716E0,8.475474358E0,8.959214413E0
7.526866278E0,-1.053448796E0,2.681505919E0,8.552088737E0,9.024325467E0
7.531901591E0,-1.015141487E0,2.624045134E0,8.609549522E0,9.057619338E0
7.536936903E0,-1.072602391E0,2.652775526E0,8.590395927E0,9.054424116E0
7.541941698E0,-1.149216771E0,2.595314741E0,8.734047890E0,9.183678475E0
7.546977010E0,-1.235408068E0,2.557007313E0,8.791508675E0,9.238784783E0
7.552012323E0,-1.235408068E0,2.470816135E0,8.916007042E0,9.334149508E0
7.557047635E0,-1.206677675E0,2.470816135E0,8.944737434E0,9.357848639E0
7.562082948E0,-1.168370485E0,2.537853718E0,9.117119789E0,9.535599841E0
7.567087743E0,-1.168370485E0,2.528276920E0,9.433155060E0,9.835735263E0
7.572123056E0,-1.139639974E0,2.509123325E0,9.528923035E0,9.919417994E0
7.577158368E0,-1.110909581E0,2.528276920E0,9.691728592E0,1.007749509E1
7.582193681E0,-1.130063176E0,2.480392933E0,9.739612579E0,1.011382445E1
7.587228993E0,-1.101332784E0,2.432508945E0,9.835380554E0,1.019140541E1
7.592233788E0,-1.177947283E0,2.537853718E0,9.720458984E0,1.011511662E1
7.597269100E0,-1.187524080E0,2.585737944E0,9.634267807E0,1.004566426E1
7.602304413E0,-1.264138460E0,2.624045134E0,9.615114212E0,1.004659545E1
7.607339725E0,-1.292868972E0,2.671929121E0,9.500192642E0,9.953108843E0
7.612344521E0,-1.388636947E0,2.662352324E0,9.346963882E0,9.817441942E0
7.617379833E0,-1.436521053E0,2.691082716E0,9.318233490E0,9.804845450E0
7.622415145E0,-1.446097851E0,2.719813108E0,9.260771751E0,9.759635022E0
7.627450458E0,-1.426944256E0,2.815581083E0,9.184157372E0,9.711457840E0
7.632485770E0,-1.541865945E0,2.758120298E0,9.155426979E0,9.685371513E0
7.637490565E0,-1.561019540E0,2.825158119E0,9.069235802E0,9.626491491E0
7.642525877E0,-1.532289028E0,2.796427488E0,9.069235802E0,9.613477747E0
7.647561190E0,-1.522712231E0,2.719813108E0,9.155426979E0,9.671498284E0
7.652596502E0,-1.522712231E0,2.738966703E0,9.145850182E0,9.667841883E0
7.657631815E0,-1.541865945E0,2.681505919E0,9.203310966E0,9.709209923E0
7.662636610E0,-1.551442742E0,2.614468336E0,9.203310966E0,9.692437878E0
7.667671923E0,-1.628057122E0,2.585737944E0,9.289502144E0,9.779133949E0
7.672707235E0,-1.580173135E0,2.509123325E0,9.461885452E0,9.915640338E0
7.677742548E0,-1.522712231E0,2.442085743E0,9.605537415E0,1.002740167E1
7.682777860E0,-1.484405041E0,2.461239338E0,9.691728592E0,1.010894458E1
7.687782655E0,-1.484405041E0,2.384624958E0,9.701305389E0,1.009976340E1
7.692817967E0,-1.426944256E0,2.461239338E0,9.777919769E0,1.018339747E1
7.697853280E0,-1.359906554E0,2.489969730E0,9.864110947E0,1.026401383E1
7.702888592E0,-1.340752959E0,2.614468336E0,9.739612579E0,1.017315666E1
7.707893388E0,-1.484405041E0,2.643198729E0,9.615114212E0,1.008168533E1
7.712928700E0,-1.532289028E0,2.691082716E0,9.308655739E0,9.810245028E0
7.717964013E0,-1.628057122E0,2.681505919E0,8.935160637E0,9.469854254E0
7.722999325E0,-1.723825216E0,2.748543501E0,8.686163902E0,9.272297886E0
7.728034637E0,-1.819593310E0,2.729389906E0,8.379706383E0,8.998887050E0
7.733039432E0,-1.944091797E0,2.681505919E0,8.082824707E0,8.735102870E0
7.738074745E0,-2.126051188E0,2.652775526E0,7.958326340E0,8.654031995E0
7.743110057E0,-2.193088770E0,2.834734917E0,7.833827972E0,8.614767617E0
7.748145369E0,-2.269703150E0,2.767697096E0,7.872135162E0,8.647670878E0
7.753180682E0,-2.202665567E0,2.748543501E0,7.977479935E0,8.720459454E0
7.758185478E0,-2.231395960E0,2.873042107E0,8.245630264E0,9.012431266E0
7.763220790E0,-2.183511972E0,2.959233284E0,8.485051155E0,9.247749957E0
7.768256102E0,-2.126051188E0,3.016694069E0,8.695740700E0,9.446504278E0
7.773291415E0,-1.982398987E0,3.035847664E0,8.868123055E0,9.580703695E0
7.778326727E0,-1.915361404E0,3.064578056E0,9.002198219E0,9.700506211E0
7.783331522E0,-1.781286120E0,3.083731890E0,9.203310966E0,9.868298504E0
7.788366834E0,-1.752555609E0,3.141192675E0,9.308655739E0,9.979459617E0
7.793402147E0,-1.771709204E0,3.198653460E0,9.423578262E0,1.010812370E1
7.798437459E0,-1.647210717E0,3.160346270E0,9.672574997E0,1.030823936E1
7.803442255E0,-1.714248419E0,3.198653460E0,9.586383820E0,1.025030665E1
7.808477567E0,-1.618480325E0,3.198653460E0,9.806650162E0,1.044132415E1
7.813512880E0,-1.695094824E0,3.217807055E0,9.921571732E0,1.056717627E1
7.818548192E0,-1.723825216E0,3.208230257E0,9.959878922E0,1.060488109E1
7.823583504E0,-1.762132406E0,3.179499865E0,1.007480049E1,1.071055250E1
7.828618817E0,-1.742978811E0,3.284844637E0,1.003649330E1,1.070324143E1
7.833623612E0,-1.781286120E0,3.284844637E0,1.005564690E1,1.072749827E1
7.838658924E0,-1.848323703E0,3.275267839E0,1.008437729E1,1.076282236E1
7.843694236E0,-1.877054095E0,3.236960649E0,9.892841339E0,1.057684055E1
7.848729549E0,-1.829170108E0,3.265691042E0,9.787496567E0,1.047882104E1
7.853734345E0,-1.953668594E0,3.332728863E0,9.825803757E0,1.055795066E1
7.858769657E0,-2.030282974E0,3.265691042E0,9.787496567E0,1.051579174E1
7.863804969E0,-2.049436569E0,3.351882458E0,9.816226959E0,1.057325011E1
7.868840282E0,-2.001552582E0,3.284844637E0,9.624691010E0,1.036489720E1
7.873875594E0,-1.905784607E0,3.428496838E0,9.662998199E0,1.042881296E1
7.878880389E0,-2.039859772E0,3.447650433E0,9.337387085E0,1.016041923E1
7.883915701E0,-2.240972757E0,3.447650433E0,9.174580574E0,1.005391372E1
7.888951014E0,-2.260126352E0,3.409343243E0,8.839392662E0,9.739951494E0
7.893986326E0,-2.499546528E0,3.438073635E0,8.140285492E0,9.183263639E0
7.898991122E0,-2.863465309E0,3.361459255E0,7.067683220E0,8.333725937E0
7.904026434E0,-3.332728863E0,3.428496838E0,6.435614109E0,8.017406139E0
7.909061747E0,-3.418920040E0,3.371036053E0,6.330269337E0,7.945137392E0
7.914097059E0,-3.064578056E0,3.514688015E0,6.847416878E0,8.284430482E0
7.919132372E0,-2.624045134E0,3.648763418E0,7.460332394E0,8.709514726E0
7.924137166E0,-2.240972757E0,3.782838583E0,8.025363922E0,9.150862950E0
7.929172479E0,-2.126051188E0,3.878606796E0,8.513781548E0,9.594173261E0
7.934207791E0,-2.068590164E0,3.936067581E0,8.848969460E0,9.903330438E0
7.939243104E0,-2.039859772E0,4.022258759E0,8.906430244E0,9.983190527E0
7.944247899E0,-2.059013367E0,3.993528366E0,8.753201485E0,9.839021348E0
7.949283212E0,-2.135627985E0,4.003105164E0,8.686163902E0,9.799755159E0
7.954318524E0,-2.288856745E0,3.955221176E0,8.609549522E0,9.747152545E0
7.959353837E0,-2.480392933E0,3.945644379E0,8.456320763E0,9.655558995E0
7.964389149E0,-2.547430515E0,3.840299606E0,8.580819130E0,9.740008226E0
7.969393944E0,-2.652775526E0,3.782838583E0,8.350975990E0,9.543892588E0
7.974429256E0,-2.671929121E0,3.801992416E0,8.245630264E0,9.464923138E0
7.979464569E0,-2.585737944E0,3.696647406E0,8.197746277E0,9.357044767E0
7.984499881E0,-2.614468336E0,3.620033026E0,8.188169479E0,9.326639438E0
7.989504677E0,-2.738966703E0,3.380612850E0,8.197746277E0,9.280814935E0
7.994539989E0,-2.662352324E0,3.265691042E0,8.101978302E0,9.132081377E0
7.999575302E0,-2.738966703E0,2.978386879E0,8.063671112E0,9.021946509E0
8.004610614E0,-2.729389906E0,2.777273893E0,8.063671112E0,8.954641888E0
